{
    "resourceType": "Bundle",
    "id": "4f3ae605-3990-4efa-89bd-07b5685e919a",
    "meta": {
        "profile": [
            "https://hapi.fhir.tw/fhir/StructureDefinition/twcr-sf-bundle-profile"
        ]
    },
    "identifier": {
        "system": "https://www.cdc.gov.tw/",
        "value": "TWCR-SF-2023-09-16T18:26:16+08:00"
    },
    "type": "document",
    "timestamp": "2023-09-16T18:26:16+08:00",
    "entry": [
        {
            "resource": {
                "resourceType": "Composition",
                "id": "9b4be1d0-15ed-40f3-920a-54246d16392f",
                "meta": {
                    "profile": [
                        "https://hapi.fhir.tw/fhir/StructureDefinition/twcr-sf-composition-profile"
                    ]
                },
                "text": {
                    "status": "generated",
                    "div": "<div xmlns=\"http://www.w3.org/1999/xhtml\"><p><b>Generated Narrative: Composition</b><a name=\"CompositionExample\"> </a></p><div style=\"display: inline-block; background-color: #d9e0e7; padding: 6px; margin: 4px; border: 1px solid #8da1b4; border-radius: 5px; line-height: 60%\"><p style=\"margin-bottom: 0px\">Resource Composition &quot;CompositionExample&quot; </p><p style=\"margin-bottom: 0px\">Profile: <a href=\"StructureDefinition-twcr-sf-composition-profile.html\">Composition</a></p></div><p><b>status</b>: final</p><p><b>type</b>: Cancer event report <span style=\"background: LightGoldenRodYellow; margin: 4px; border: 1px solid khaki\"> (<a href=\"https://loinc.org/\">LOINC</a>#72134-0)</span></p><p><b>date</b>: 2022-07-12 14:30:00+0800</p><p><b>author</b>: </p><ul><li><a href=\"Organization-OrganizationExample.html\">Organization/OrganizationExample</a></li><li><a href=\"Practitioner-PractitionerExample.html\">Practitioner/PractitionerExample</a></li></ul><p><b>title</b>: 癌症登記短表</p></div>"
                },
                "status": "final",
                "type": {
                    "coding": [
                        {
                            "system": "http://loinc.org",
                            "code": "72134-0",
                            "display": "Cancer event report"
                        }
                    ],
                    "subject": {
                        "reference": "86602a9d-9210-4458-96af-31486a131c09"
                    },
                    "date": "2023-09-16T18:26:16+08:00",
                    "author": [
                        {
                            "reference": "2d9a3009-3056-4bc8-a620-d6087a7b06b5"
                        },
                        {
                            "reference": "c2a05b15-5991-4f6e-a5ec-3dd0e5c135cb"
                        }
                    ],
                    "title": "Cancer Registry Short Form",
                    "section": {
                        "sectionCancerConfirmation": {
                            "title": "The section of CancerConfirmation",
                            "code": {
                                "coding": [
                                    {
                                        "system": "http://snomed.info/sct",
                                        "code": "395099008"
                                    }
                                ]
                            },
                            "entry": [
                                {
                                    "reference": "7abead5d-4220-4372-81d2-e1b5e3d548ac"
                                },
                                {
                                    "reference": "69bcf857-416f-4deb-8456-d8776d543914"
                                },
                                {
                                    "reference": "1d415cad-efb3-496c-9710-6f68b81d2444"
                                },
                                {
                                    "reference": "74dfb2dd-7502-4cd4-b8f8-5aeb41386049"
                                },
                                {
                                    "reference": "f1979686-c787-439c-90c6-440453da7bd2"
                                },
                                {
                                    "reference": "14a71070-a306-4538-a080-1eddf5e41e99"
                                },
                                {
                                    "reference": "247c5252-99b1-4289-a903-08cdd8ec3724"
                                }
                            ]
                        },
                        "sectionFirstCourseOfTreatment": {
                            "title": "The section of FirstCourseOfTreatment",
                            "code": {
                                "coding": [
                                    {
                                        "system": "http://snomed.info/sct",
                                        "code": "708255002"
                                    }
                                ]
                            },
                            "entry": [
                                {
                                    "reference": "3d626a39-f2c6-4e3c-9ee4-e020c89860fb"
                                },
                                {
                                    "reference": "e3fbe467-add1-4bf2-9a40-3b655a1e2b78"
                                },
                                {
                                    "reference": "668a05e4-09c3-46f1-b91b-c310edc34f58"
                                },
                                {
                                    "reference": "cf38eea7-413a-46d1-a0ae-4a3010326674"
                                },
                                {
                                    "reference": "83017428-5a80-4c6b-a479-628b607c6b37"
                                },
                                {
                                    "reference": "12ca4808-68c6-4aaa-9880-272aaf28a030"
                                },
                                {
                                    "reference": "e22d39dc-8531-46e4-9623-935464ab0e0b"
                                },
                                {
                                    "reference": "3a6b601b-6c00-4ec4-818a-e0296a724212"
                                },
                                {
                                    "reference": "500cfa63-5d50-4d06-80b2-bcec39d31937"
                                },
                                {
                                    "reference": "0ca64a67-b206-47dc-b345-cfebc6d65b87"
                                }
                            ]
                        },
                        "sectionOtherFactors": {
                            "title": "The section of OtherFactors",
                            "code": {
                                "coding": [
                                    {
                                        "system": "https://hapi.fhir.tw/fhir/CodeSystem/logical-model-codesystem",
                                        "code": "OtherFactors"
                                    }
                                ]
                            },
                            "entry": [
                                {
                                    "reference": "5617475e-5a9d-4191-a56c-97cb2615d0d3"
                                },
                                {
                                    "reference": "223d3959-fff8-4ae4-88bd-c2d7e7463783"
                                },
                                {
                                    "reference": "871e4a46-55ff-40d8-bd67-1061b3e74d5c"
                                },
                                {},
                                {
                                    "reference": "a345aea6-d521-4d9f-aefd-d4aaf09f21a3"
                                }
                            ]
                        }
                    }
                }
            }
        },
        {
            "resource": {
                "resourceType": "Organization",
                "id": "2d9a3009-3056-4bc8-a620-d6087a7b06b5",
                "meta": {
                    "versionId": "2",
                    "lastUpdated": "2023-09-15T14:20:31.600+00:00",
                    "profile": [
                        "https://hapi.fhir.tw/fhir/StructureDefinition/twcr-sf-organization-profile"
                    ]
                },
                "text": {
                    "status": "empty",
                    "div": "<div xmlns=\"http://www.w3.org/1999/xhtml\">目前為空值，可根據使用需求自行產生這筆資料的摘要資訊並填入此欄位</div>"
                },
                "identifier": [
                    {
                        "value": "0000016"
                    }
                ]
            }
        },
        {
            "resource": {
                "resourceType": "Patient",
                "id": "86602a9d-9210-4458-96af-31486a131c09",
                "meta": {
                    "versionId": "1",
                    "lastUpdated": "2023-09-15T14:05:39.025+00:00",
                    "profile": [
                        " https://hapi.fhir.tw/fhir/StructureDefinition/twcr-sf-patient-profile"
                    ]
                },
                "text": {
                    "status": "empty",
                    "div": "<div xmlns=\"http://www.w3.org/1999/xhtml\">目前為空值，可根據使用需求自行產生這筆資料的摘要資訊並填入此欄位</div>"
                },
                "identifier": [
                    {
                        "type": {
                            "coding": [
                                {
                                    "system": "http://terminology.hl7.org/CodeSystem/v2-0203",
                                    "code": "NI",
                                    "display": "National unique individual identifier"
                                }
                            ]
                        },
                        "system": "http://www.moi.gov.tw/",
                        "value": "F130000002"
                    },
                    {
                        "type": {
                            "coding": [
                                {
                                    "system": "http://terminology.hl7.org/CodeSystem/v2-0203",
                                    "code": "MR",
                                    "display": "Medical record number"
                                }
                            ]
                        },
                        "system": "https://www.vghtpe.gov.tw/Index.action",
                        "value": "A01112"
                    }
                ],
                "name": [
                    {
                        "text": "許○○"
                    }
                ],
                "gender": "female",
                "birthDate": "1956-11-20",
                "address": [
                    {
                        "postalCode": "3128"
                    }
                ],
                "managingOrganization": {
                    "reference": "Organization/2d9a3009-3056-4bc8-a620-d6087a7b06b5"
                }
            }
        },
        {
            "resource": {
                "resourceType": "Practitioner",
                "id": "c2a05b15-5991-4f6e-a5ec-3dd0e5c135cb",
                "meta": {
                    "versionId": "1",
                    "lastUpdated": "2023-09-15T14:05:39.105+00:00",
                    "profile": [
                        " https://hapi.fhir.tw/fhir/StructureDefinition/twcr-sf-practitioner-profile"
                    ]
                },
                "text": {
                    "status": "empty",
                    "div": "<div xmlns=\"http://www.w3.org/1999/xhtml\">目前為空值，可根據使用需求自行產生這筆資料的摘要資訊並填入此欄位</div>"
                },
                "identifier": [
                    {
                        "value": "099A0059"
                    }
                ]
            }
        },
        {
            "resource": {
                "resourceType": "Encounter",
                "id": "7abead5d-4220-4372-81d2-e1b5e3d548ac",
                "meta": {
                    "versionId": "1",
                    "lastUpdated": "2023-09-15T14:05:39.167+00:00",
                    "profile": [
                        "https://hapi.fhir.tw/fhir/StructureDefinition/twcr-sf-encounter-profile"
                    ]
                },
                "text": {
                    "status": "empty",
                    "div": "<div xmlns=\"http://www.w3.org/1999/xhtml\">目前為空值，可根據使用需求自行產生這筆資料的摘要資訊並填入此欄位</div>"
                },
                "status": "finished",
                "class": {
                    "system": "http://terminology.hl7.org/CodeSystem/v3-ActCode",
                    "code": "AMB",
                    "display": "ambulatory"
                },
                "period": {
                    "start": "2017-06-22"
                }
            }
        },
        {
            "resource": {
                "resourceType": "Bundle",
                "type": "transaction",
                "entry": [
                    {
                        "fullUrl": "https://hapi.fhir.tw/fhir/Observation/1b69a7e7-0891-464f-ab33-d42826e6ccb8",
                        "resource": {
                            "resourceType": "Observation",
                            "id": "1b69a7e7-0891-464f-ab33-d42826e6ccb8",
                            "meta": {
                                "profile": [
                                    "https://hapi.fhir.tw/fhir/StructureDefinition/twcr-sf-betel-nut-chewing-behavior-profile"
                                ]
                            },
                            "text": {
                                "status": "empty",
                                "div": "<div xmlns=\"http://www.w3.org/1999/xhtml\">目前為空值，可根據使用需求自行產生這筆資料的摘要資訊並填入此欄位</div>"
                            },
                            "component": [
                                {
                                    "code": {
                                        "coding": [
                                            {
                                                "system": "https://mitw.dicom.org.tw/IG/TWCR/CodeSystem/betel-nut-chewing-behavior-codesystem",
                                                "code": "amount",
                                                "display": "每日嚼檳榔量，以 ”顆” 計算"
                                            }
                                        ]
                                    },
                                    "valueCodeableConcept": {
                                        "coding": [
                                            {
                                                "system": "https://mitw.dicom.org.tw/IG/TWCR/CodeSystem/betel-nut-chewing-amount-codesystem",
                                                "code": "99",
                                                "display": "病歷未記載或嚼檳榔狀態完全不詳者"
                                            }
                                        ]
                                    }
                                },
                                {
                                    "code": {
                                        "coding": [
                                            {
                                                "system": "https://mitw.dicom.org.tw/IG/TWCR/CodeSystem/betel-nut-chewing-behavior-codesystem",
                                                "code": "year",
                                                "display": "嚼檳榔年"
                                            }
                                        ]
                                    },
                                    "valueCodeableConcept": {
                                        "coding": [
                                            {
                                                "system": "https://mitw.dicom.org.tw/IG/TWCR/CodeSystem/betel-nut-chewing-year-codesystem",
                                                "code": "99",
                                                "display": "病歷未記載或嚼檳榔狀態完全不詳者"
                                            }
                                        ]
                                    }
                                },
                                {
                                    "code": {
                                        "coding": [
                                            {
                                                "system": "https://mitw.dicom.org.tw/IG/TWCR/CodeSystem/betel-nut-chewing-behavior-codesystem",
                                                "code": "quit",
                                                "display": "戒嚼檳榔年"
                                            }
                                        ]
                                    },
                                    "valueCodeableConcept": {
                                        "coding": [
                                            {
                                                "system": "https://mitw.dicom.org.tw/IG/TWCR/CodeSystem/betel-nut-chewing-quit-codesystem",
                                                "code": "99",
                                                "display": "病歷未記載或戒嚼檳榔狀態完全不詳者"
                                            }
                                        ]
                                    }
                                }
                            ]
                        },
                        "request": {
                            "method": "PUT",
                            "url": "/Observation/1b69a7e7-0891-464f-ab33-d42826e6ccb8"
                        }
                    }
                ]
            }
        },
        {
            "resource": {
                "resourceType": "Procedure",
                "id": "cf38eea7-413a-46d1-a0ae-4a3010326674",
                "meta": {
                    "versionId": "1",
                    "lastUpdated": "2023-09-15T14:45:05.858+00:00",
                    "profile": [
                        "https://hapi.fhir.tw/fhir/StructureDefinition/twcr-sf-chemotherapy-profile"
                    ]
                },
                "text": {
                    "status": "empty",
                    "div": "<div xmlns=\"http://www.w3.org/1999/xhtml\">目前為空值，可根據使用需求自行產生這筆資料的摘要資訊並填入此欄位</div>"
                },
                "status": "completed",
                "category": {
                    "coding": [
                        {
                            "system": "https://mitw.dicom.org.tw/IG/TWCR/CodeSystem/procedure-code-codesystem",
                            "code": "Chemotherapy",
                            "display": "申報醫院化學治療"
                        }
                    ]
                },
                "subject": {
                    "reference": "Patient/86602a9d-9210-4458-96af-31486a131c09"
                },
                "performedPeriod": {
                    "start": "2002-11-11"
                }
            }
        },
        {
            "resource": {
                "resourceType": "Condition",
                "id": "69bcf857-416f-4deb-8456-d8776d543914",
                "meta": {
                    "versionId": "1",
                    "lastUpdated": "2023-09-15T14:15:12.611+00:00",
                    "profile": [
                        "https://hapi.fhir.tw/fhir/StructureDefinition/twcr-sf-chemotherapy-profile"
                    ]
                },
                "text": {
                    "status": "empty",
                    "div": "<div xmlns=\"http://www.w3.org/1999/xhtml\">目前為空值，可根據使用需求自行產生這筆資料的摘要資訊並填入此欄位</div>"
                },
                "category": [
                    {
                        "coding": [
                            {
                                "system": "https://mitw.dicom.org.tw/IG/TWCR/CodeSystem/class-of-case-codesystem",
                                "code": "0",
                                "display": "申報醫院診斷，但未於申報醫院接受首次療程"
                            }
                        ]
                    },
                    {
                        "coding": [
                            {
                                "system": "https://mitw.dicom.org.tw/IG/TWCR/CodeSystem/class-of-diangosis-status-codesystem",
                                "code": "1",
                                "display": "於申報醫院診斷"
                            }
                        ]
                    },
                    {
                        "coding": [
                            {
                                "system": "https://mitw.dicom.org.tw/IG/TWCR/CodeSystem/class-of-treatment-status-codesystem",
                                "code": "2",
                                "display": "未於申報醫院接受任何首次療程：(1)僅於他院接受首次療程 (2)於申報醫院診斷，但至他院接受後續診療，其首次療程內容不詳 (3)於他院診斷未治療，至申報醫院諮詢第二意見\r\n/主要癌症治療計畫由他院規劃：(1)接受首次療程後維持輔助性荷爾蒙治療(maintenance adjuvant hormonal therapy)或維持性口服性化療 (2)因為原轉介醫院放射治療設備不足，接受委託局部追加放射治療，且放射治療模式為其他放射療法 (Other RT)，如brachytherapy, radiosurgery, proton...等 (3)因為原轉介醫院放射治療設備在療程中途故障，為避免延誤療程，接受委託進行部分放射治療 (4)維持性口服性化療"
                            }
                        ]
                    }
                ],
                "code": {
                    "coding": [
                        {
                            "system": "https://mitw.dicom.org.tw/IG/TWCR/CodeSystem/sequence-number-codesystem",
                            "code": "01",
                            "display": "個案一生中第 1 個惡性腫瘤或原位癌"
                        }
                    ]
                },
                "subject": {
                    "reference": "Patient/86602a9d-9210-4458-96af-31486a131c09"
                },
                "encounter": {
                    "reference": "Encounter/7abead5d-4220-4372-81d2-e1b5e3d548ac"
                },
                "onsetAge": {
                    "value": 60,
                    "system": "http://unitsofmeasure.org",
                    "code": "a"
                },
                "evidence": [
                    {
                        "code": [
                            {
                                "coding": [
                                    {
                                        "system": "https://mitw.dicom.org.tw/IG/TWCR/CodeSystem/diagnostic-confirmation-codesystem",
                                        "code": "7",
                                        "display": "放射線或其他影像學檢查診斷為癌症，但未經顯微鏡檢證實"
                                    }
                                ]
                            }
                        ]
                    }
                ]
            }
        },
        {
            "resource": {
                "resourceType": "Condition",
                "id": "1d415cad-efb3-496c-9710-6f68b81d2444",
                "meta": {
                    "versionId": "1",
                    "lastUpdated": "2023-09-15T14:45:06.004+00:00",
                    "profile": [
                        "https://hapi.fhir.tw/fhir/StructureDefinition/twcr-sf-date-of-diagnosis-condition-profile"
                    ]
                },
                "text": {
                    "status": "empty",
                    "div": "<div xmlns=\"http://www.w3.org/1999/xhtml\">目前為空值，可根據使用需求自行產生這筆資料的摘要資訊並填入此欄位</div>"
                },
                "subject": {
                    "reference": "Patient/86602a9d-9210-4458-96af-31486a131c09"
                },
                "onsetPeriod": {
                    "start": "2017-06-22"
                }
            }
        },
        {
            "resource": {
                "resourceType": "Condition",
                "id": "74dfb2dd-7502-4cd4-b8f8-5aeb41386049",
                "meta": {
                    "versionId": "1",
                    "lastUpdated": "2023-09-15T14:45:06.084+00:00",
                    "profile": [
                        "https://hapi.fhir.tw/fhir/StructureDefinition/twcr-sf-date-of-microscopic-confirmation-profile"
                    ]
                },
                "text": {
                    "status": "empty",
                    "div": "<div xmlns=\"http://www.w3.org/1999/xhtml\">目前為空值，可根據使用需求自行產生這筆資料的摘要資訊並填入此欄位</div>"
                },
                "subject": {
                    "reference": "Patient/86602a9d-9210-4458-96af-31486a131c09"
                },
                "onsetDateTime": "2002-11-11"
            }
        },
        {
            "resource": {
                "resourceType": "Observation",
                "id": "a345aea6-d521-4d9f-aefd-d4aaf09f21a3",
                "meta": {
                    "versionId": "1",
                    "lastUpdated": "2023-09-15T14:45:06.151+00:00",
                    "profile": [
                        "https://hapi.fhir.tw/fhir/StructureDefinition/twcr-sf-drinking-behavior-profile"
                    ]
                },
                "text": {
                    "status": "empty",
                    "div": "<div xmlns=\"http://www.w3.org/1999/xhtml\">目前為空值，可根據使用需求自行產生這筆資料的摘要資訊並填入此欄位</div>"
                },
                "status": "registered",
                "code": {
                    "coding": [
                        {
                            "system": "https://mitw.dicom.org.tw/IG/TWCR/CodeSystem/behavior-codesystem",
                            "code": "Drinking",
                            "display": "喝酒行為"
                        }
                    ]
                },
                "valueCodeableConcept": {
                    "coding": [
                        {
                            "system": "https://mitw.dicom.org.tw/IG/TWCR/CodeSystem/drinking-behavior-codesystem",
                            "code": "999",
                            "display": "病歷未記載或不詳"
                        }
                    ]
                }
            }
        },
        {
            "resource": {
                "resourceType": "Procedure",
                "id": "3d626a39-f2c6-4e3c-9ee4-e020c89860fb",
                "meta": {
                    "versionId": "1",
                    "lastUpdated": "2023-09-15T14:45:06.212+00:00",
                    "profile": [
                        "https://hapi.fhir.tw/fhir/StructureDefinition/twcr-sf-first-surgical-procedure-profile"
                    ]
                },
                "text": {
                    "status": "empty",
                    "div": "<div xmlns=\"http://www.w3.org/1999/xhtml\">目前為空值，可根據使用需求自行產生這筆資料的摘要資訊並填入此欄位</div>"
                },
                "status": "completed",
                "subject": {
                    "reference": "Patient/86602a9d-9210-4458-96af-31486a131c09"
                },
                "performedDateTime": "2002-11-11"
            }
        },
        {
            "resource": {
                "resourceType": "Observation",
                "id": "14a71070-a306-4538-a080-1eddf5e41e99",
                "meta": {
                    "versionId": "1",
                    "lastUpdated": "2023-09-15T14:45:06.291+00:00",
                    "profile": [
                        "https://hapi.fhir.tw/fhir/StructureDefinition/twcr-sf-grade-clinical-profile"
                    ]
                },
                "text": {
                    "status": "empty",
                    "div": "<div xmlns=\"http://www.w3.org/1999/xhtml\">目前為空值，可根據使用需求自行產生這筆資料的摘要資訊並填入此欄位</div>"
                },
                "status": "registered",
                "code": {
                    "coding": [
                        {
                            "system": "http://loinc.org",
                            "code": "75620-5",
                            "display": "TNM clinical staging before treatment panel Cancer"
                        }
                    ]
                },
                "valueCodeableConcept": {
                    "coding": [
                        {
                            "system": "https://mitw.dicom.org.tw/IG/TWCR/CodeSystem/grade-clinical-codesystem",
                            "code": "9",
                            "display": "(1)分化/分級不明、病歷未記載 (2)首次治療前未有分級/分化 (3)術後才診斷為癌症"
                        }
                    ]
                }
            }
        },
        {
            "resource": {
                "resourceType": "Observation",
                "id": "247c5252-99b1-4289-a903-08cdd8ec3724",
                "meta": {
                    "versionId": "1",
                    "lastUpdated": "2023-09-15T14:45:06.507+00:00",
                    "profile": [
                        "https://hapi.fhir.tw/fhir/StructureDefinition/twcr-sf-grade-pathological-profile"
                    ]
                },
                "text": {
                    "status": "empty",
                    "div": "<div xmlns=\"http://www.w3.org/1999/xhtml\">目前為空值，可根據使用需求自行產生這筆資料的摘要資訊並填入此欄位</div>"
                },
                "status": "registered",
                "code": {
                    "coding": [
                        {
                            "system": "http://loinc.org",
                            "code": "75621-3",
                            "display": "TNM pathologic staging after surgery panel Cancer"
                        }
                    ]
                },
                "valueCodeableConcept": {
                    "coding": [
                        {
                            "system": "https://mitw.dicom.org.tw/IG/TWCR/CodeSystem/grade-pathological-codesystem",
                            "code": "9",
                            "display": "(1)分化/分級不明、病歷未記載 (2)首次治療前未有分級/分化 (3)術後才診斷為癌症"
                        }
                    ]
                }
            }
        },
        {
            "resource": {
                "resourceType": "Observation",
                "id": "5617475e-5a9d-4191-a56c-97cb2615d0d3",
                "meta": {
                    "versionId": "1",
                    "lastUpdated": "2023-09-15T14:45:06.574+00:00",
                    "profile": [
                        "https://hapi.fhir.tw/fhir/StructureDefinition/twcr-sf-height-profile"
                    ]
                },
                "text": {
                    "status": "empty",
                    "div": "<div xmlns=\"http://www.w3.org/1999/xhtml\">目前為空值，可根據使用需求自行產生這筆資料的摘要資訊並填入此欄位</div>"
                },
                "status": "registered",
                "code": {
                    "coding": [
                        {
                            "system": "http://loinc.org",
                            "code": "3137-7",
                            "display": "Body height Measured"
                        }
                    ]
                },
                "valueCodeableConcept": {
                    "coding": [
                        {
                            "system": "https://mitw.dicom.org.tw/IG/TWCR/CodeSystem/height-codesystem",
                            "code": "999",
                            "display": "病歷未記載或不詳"
                        }
                    ]
                }
            }
        },
        {
            "resource": {
                "resourceType": "Procedure",
                "id": "e22d39dc-8531-46e4-9623-935464ab0e0b",
                "meta": {
                    "versionId": "1",
                    "lastUpdated": "2023-09-15T14:45:06.651+00:00",
                    "profile": [
                        "https://hapi.fhir.tw/fhir/StructureDefinition/twcr-sf-hematologic-transplant-endocrine-procedure-profile"
                    ]
                },
                "text": {
                    "status": "empty",
                    "div": "<div xmlns=\"http://www.w3.org/1999/xhtml\">目前為空值，可根據使用需求自行產生這筆資料的摘要資訊並填入此欄位</div>"
                },
                "status": "completed",
                "category": {
                    "coding": [
                        {
                            "system": "https://mitw.dicom.org.tw/IG/TWCR/CodeSystem/procedure-code-codesystem",
                            "code": "HematologicTransplantAndEndocrineProcedure",
                            "display": "申報醫院骨髓/幹細胞移植或內分泌處置"
                        }
                    ]
                },
                "code": {
                    "coding": [
                        {
                            "system": "https://mitw.dicom.org.tw/IG/TWCR/CodeSystem/hematologic-transplant-and-endocrine-procedure-codesystem",
                            "code": "00",
                            "display": "未接受骨髓/幹細胞移植或內分泌處置，骨髓/幹細胞移植或內分泌處置非首次療程的一部份，由屍體解剖時才診斷為癌症"
                        }
                    ]
                },
                "subject": {
                    "reference": "Patient/86602a9d-9210-4458-96af-31486a131c09"
                },
                "performedPeriod": {
                    "start": "2002-11-11"
                }
            }
        },
        {
            "resource": {
                "resourceType": "Procedure",
                "id": "83017428-5a80-4c6b-a479-628b607c6b37",
                "meta": {
                    "versionId": "1",
                    "lastUpdated": "2023-09-15T14:45:06.731+00:00",
                    "profile": [
                        "https://hapi.fhir.tw/fhir/StructureDefinition/twcr-sf-hormone-steroid-therapy-profile"
                    ]
                },
                "text": {
                    "status": "empty",
                    "div": "<div xmlns=\"http://www.w3.org/1999/xhtml\">目前為空值，可根據使用需求自行產生這筆資料的摘要資訊並填入此欄位</div>"
                },
                "status": "completed",
                "category": {
                    "coding": [
                        {
                            "system": "https://mitw.dicom.org.tw/IG/TWCR/CodeSystem/procedure-code-codesystem",
                            "code": "HormoneSteroid",
                            "display": "申報醫院荷爾蒙/類固醇治療"
                        }
                    ]
                },
                "code": {
                    "coding": [
                        {
                            "system": "https://mitw.dicom.org.tw/IG/TWCR/CodeSystem/hormone-steroid-therapy-codesystem",
                            "code": "00",
                            "display": "(1)未接受荷爾蒙/類固醇治療，荷爾蒙/類固醇治療非首次療程的一部份 (2)由屍體解剖時才診斷為癌症"
                        }
                    ]
                },
                "subject": {
                    "reference": "Patient/86602a9d-9210-4458-96af-31486a131c09"
                },
                "performedPeriod": {
                    "start": "2002-11-11"
                }
            }
        },
        {
            "resource": {
                "resourceType": "Procedure",
                "id": "12ca4808-68c6-4aaa-9880-272aaf28a030",
                "meta": {
                    "versionId": "1",
                    "lastUpdated": "2023-09-15T14:45:06.792+00:00",
                    "profile": [
                        "https://hapi.fhir.tw/fhir/StructureDefinition/twcr-sf-immunotherapy-profile"
                    ]
                },
                "text": {
                    "status": "empty",
                    "div": "<div xmlns=\"http://www.w3.org/1999/xhtml\">目前為空值，可根據使用需求自行產生這筆資料的摘要資訊並填入此欄位</div>"
                },
                "status": "completed",
                "category": {
                    "coding": [
                        {
                            "system": "https://mitw.dicom.org.tw/IG/TWCR/CodeSystem/procedure-code-codesystem",
                            "code": "Immunotherapy",
                            "display": "申報醫院免疫治療"
                        }
                    ]
                },
                "code": {
                    "coding": [
                        {
                            "system": "https://mitw.dicom.org.tw/IG/TWCR/CodeSystem/immunotherapy-codesystem",
                            "code": "00",
                            "display": "(1)未接受免疫治療，免疫治療非首次療程的一部份 (2)由屍體解剖時才診斷為癌症"
                        }
                    ]
                },
                "subject": {
                    "reference": "Patient/86602a9d-9210-4458-96af-31486a131c09"
                },
                "performedPeriod": {
                    "start": "2002-11-11"
                }
            }
        },
        {
            "resource": {
                "resourceType": "Procedure",
                "id": "0ca64a67-b206-47dc-b345-cfebc6d65b87",
                "meta": {
                    "versionId": "2",
                    "lastUpdated": "2023-09-15T14:30:50.233+00:00",
                    "profile": [
                        "https://hapi.fhir.tw/fhir/StructureDefinition/twcr-sf-other-treatment-profile"
                    ]
                },
                "text": {
                    "status": "empty",
                    "div": "<div xmlns=\"http://www.w3.org/1999/xhtml\">目前為空值，可根據使用需求自行產生這筆資料的摘要資訊並填入此欄位</div>"
                },
                "status": "completed",
                "category": {
                    "coding": [
                        {
                            "system": "https://mitw.dicom.org.tw/IG/TWCR/CodeSystem/procedure-code-codesystem",
                            "code": "OtherTreatment",
                            "display": "申報醫院其他治療"
                        }
                    ]
                },
                "code": {
                    "coding": [
                        {
                            "system": "https://mitw.dicom.org.tw/IG/TWCR/CodeSystem/other-treatment-codesystem",
                            "code": "00",
                            "display": "(1)未接受其他治療，其他治療非首次療程的一部份 (2)由屍體解剖時才診斷為癌症 (3)個案於申報醫院接受臨床試驗藥物治療，且依據藥物種類編碼於化學/荷爾蒙/類固醇/免疫/標靶欄位"
                        }
                    ]
                },
                "subject": {
                    "reference": "Patient/86602a9d-9210-4458-96af-31486a131c09"
                },
                "performedPeriod": {
                    "start": "2002-11-11"
                }
            }
        },
        {
            "resource": {
                "resourceType": "Procedure",
                "id": "500cfa63-5d50-4d06-80b2-bcec39d31937",
                "meta": {
                    "versionId": "1",
                    "lastUpdated": "2023-09-15T14:45:51.359+00:00",
                    "profile": [
                        "https://hapi.fhir.tw/fhir/StructureDefinition/twcr-sf-palliative-care-profile"
                    ]
                },
                "text": {
                    "status": "empty",
                    "div": "<div xmlns=\"http://www.w3.org/1999/xhtml\">目前為空值，可根據使用需求自行產生這筆資料的摘要資訊並填入此欄位</div>"
                },
                "status": "completed",
                "category": {
                    "coding": [
                        {
                            "system": "https://mitw.dicom.org.tw/IG/TWCR/CodeSystem/procedure-code-codesystem",
                            "code": "PalliativeCare",
                            "display": "申報醫院緩和照護"
                        }
                    ]
                },
                "code": {
                    "coding": [
                        {
                            "system": "https://mitw.dicom.org.tw/IG/TWCR/CodeSystem/palliative-care-codesystem",
                            "code": "0",
                            "display": "(1)個案未接受緩和照護 (2)屍體解剖時才診斷為癌症"
                        }
                    ]
                },
                "subject": {
                    "reference": "Patient/86602a9d-9210-4458-96af-31486a131c09"
                }
            }
        },
        {
            "resource": {
                "resourceType": "Condition",
                "id": "f1979686-c787-439c-90c6-440453da7bd2",
                "meta": {
                    "versionId": "1",
                    "lastUpdated": "2023-09-15T14:45:51.440+00:00",
                    "profile": [
                        " https://hapi.fhir.tw/fhir/StructureDefinition/twcr-sf-primary-cancer-profile"
                    ]
                },
                "text": {
                    "status": "empty",
                    "div": "<div xmlns=\"http://www.w3.org/1999/xhtml\">目前為空值，可根據使用需求自行產生這筆資料的摘要資訊並填入此欄位</div>"
                },
                "extension": [
                    {
                        "url": " https://hapi.fhir.tw/fhir/StructureDefinition/twcr-sf-histology-extension",
                        "extension": [
                            {
                                "url": "histology",
                                "valueCodeableConcept": {
                                    "coding": [
                                        {
                                            "system": "https://mitw.dicom.org.tw/IG/TWCR/CodeSystem/histology-codesystem",
                                            "code": "8312",
                                            "display": "Renal cell carcinoma, NOS/ Renal cell adenocarcinoma/ Renal cell carcinoma, unclassified/ Grawitz tumor/ Hypernephroma"
                                        }
                                    ]
                                }
                            }
                        ]
                    },
                    {
                        "url": " https://hapi.fhir.tw/fhir/StructureDefinition/twcr-sf-behavior-code-extension",
                        "extension": [
                            {
                                "url": "behaviorCode",
                                "valueCodeableConcept": {
                                    "coding": [
                                        {
                                            "system": "https://mitw.dicom.org.tw/IG/TWCR/CodeSystem/behavior-code-codesystem",
                                            "code": "3",
                                            "display": "invasive"
                                        }
                                    ]
                                }
                            }
                        ]
                    }
                ],
                "bodySite": [
                    {
                        "coding": [
                            {
                                "system": "https://mitw.dicom.org.tw/IG/TWCR/CodeSystem/primary-site-codesystem",
                                "code": "C649",
                                "display": "Kidney NOS"
                            }
                        ]
                    },
                    {
                        "coding": [
                            {
                                "system": "https://mitw.dicom.org.tw/IG/TWCR/CodeSystem/laterality-codesystem",
                                "code": "1",
                                "display": "原發起源位在右側"
                            }
                        ]
                    }
                ],
                "subject": {
                    "reference": "Patient/86602a9d-9210-4458-96af-31486a131c09"
                }
            }
        },
        {
            "resource": {
                "resourceType": "Procedure",
                "id": "668a05e4-09c3-46f1-b91b-c310edc34f58",
                "meta": {
                    "versionId": "1",
                    "lastUpdated": "2023-09-15T14:45:51.610+00:00",
                    "profile": [
                        " https://hapi.fhir.tw/fhir/StructureDefinition/twcr-sf-rt-profile"
                    ]
                },
                "text": {
                    "status": "empty",
                    "div": "<div xmlns=\"http://www.w3.org/1999/xhtml\">目前為空值，可根據使用需求自行產生這筆資料的摘要資訊並填入此欄位</div>"
                },
                "status": "completed",
                "category": {
                    "coding": [
                        {
                            "system": "https://mitw.dicom.org.tw/IG/TWCR/CodeSystem/procedure-code-codesystem",
                            "code": "RT",
                            "display": "申報醫院放射治療"
                        }
                    ]
                },
                "code": {
                    "coding": [
                        {
                            "system": "https://mitw.dicom.org.tw/IG/TWCR/CodeSystem/institute-of-RT-codesystem",
                            "code": "999",
                            "display": "Error-Could_not_find_any_match_displayValue"
                        }
                    ]
                },
                "subject": {
                    "reference": "Patient/86602a9d-9210-4458-96af-31486a131c09"
                },
                "performedPeriod": {
                    "start": "2020-03-06"
                }
            }
        },
        {
            "resource": {
                "resourceType": "Observation",
                "id": "871e4a46-55ff-40d8-bd67-1061b3e74d5c",
                "meta": {
                    "versionId": "1",
                    "lastUpdated": "2023-09-15T14:45:51.689+00:00",
                    "profile": [
                        " https://hapi.fhir.tw/fhir/StructureDefinition/twcr-sf-smoking-behavior-profile"
                    ]
                },
                "text": {
                    "status": "empty",
                    "div": "<div xmlns=\"http://www.w3.org/1999/xhtml\">目前為空值，可根據使用需求自行產生這筆資料的摘要資訊並填入此欄位</div>"
                },
                "status": "registered",
                "code": {
                    "coding": [
                        {
                            "system": "https://mitw.dicom.org.tw/IG/TWCR/CodeSystem/behavior-codesystem",
                            "code": "Smoking",
                            "display": "吸菸行為"
                        }
                    ]
                },
                "component": [
                    {
                        "code": {
                            "coding": [
                                {
                                    "system": "https://mitw.dicom.org.tw/IG/TWCR/CodeSystem/smoking-behavior-codesystem",
                                    "code": "amount",
                                    "display": "每日吸菸量，以”支”計算"
                                }
                            ]
                        },
                        "valueCodeableConcept": {
                            "coding": [
                                {
                                    "system": "https://mitw.dicom.org.tw/IG/TWCR/CodeSystem/smoking-amount-codesystem",
                                    "code": "99",
                                    "display": "病歷未記載或吸菸狀態完全不詳者"
                                }
                            ]
                        }
                    },
                    {
                        "code": {
                            "coding": [
                                {
                                    "system": "https://mitw.dicom.org.tw/IG/TWCR/CodeSystem/smoking-behavior-codesystem",
                                    "code": "year",
                                    "display": "吸菸年"
                                }
                            ]
                        },
                        "valueCodeableConcept": {
                            "coding": [
                                {
                                    "system": "https://mitw.dicom.org.tw/IG/TWCR/CodeSystem/smoking-year-codesystem",
                                    "code": "99",
                                    "display": "病歷未記載或吸菸狀態完全不詳者"
                                }
                            ]
                        }
                    },
                    {
                        "code": {
                            "coding": [
                                {
                                    "system": "https://mitw.dicom.org.tw/IG/TWCR/CodeSystem/smoking-behavior-codesystem",
                                    "code": "quit",
                                    "display": "戒菸年"
                                }
                            ]
                        },
                        "valueCodeableConcept": {
                            "coding": [
                                {
                                    "system": "https://mitw.dicom.org.tw/IG/TWCR/CodeSystem/smoking-quit-codesystem",
                                    "code": "99",
                                    "display": "病歷未記載或戒菸狀態完全不詳者"
                                }
                            ]
                        }
                    }
                ]
            }
        },
        {
            "resource": {
                "resourceType": "Procedure",
                "id": "e3fbe467-add1-4bf2-9a40-3b655a1e2b78",
                "meta": {
                    "versionId": "1",
                    "lastUpdated": "2023-09-15T14:45:51.769+00:00",
                    "profile": [
                        " https://hapi.fhir.tw/fhir/StructureDefinition/twcr-sf-surgical-procedure-of-primary-site-profile"
                    ]
                },
                "text": {
                    "status": "empty",
                    "div": "<div xmlns=\"http://www.w3.org/1999/xhtml\">目前為空值，可根據使用需求自行產生這筆資料的摘要資訊並填入此欄位</div>"
                },
                "status": "completed",
                "code": {
                    "coding": [
                        {
                            "system": "https://mitw.dicom.org.tw/IG/TWCR/CodeSystem/surgical-procedure-of-primary-site-codesystem",
                            "code": "00",
                            "display": "未進行原發部位切除手術"
                        }
                    ]
                },
                "subject": {
                    "reference": "Patient/86602a9d-9210-4458-96af-31486a131c09"
                }
            }
        },
        {
            "resource": {
                "resourceType": "Procedure",
                "id": "3a6b601b-6c00-4ec4-818a-e0296a724212",
                "meta": {
                    "versionId": "1",
                    "lastUpdated": "2023-09-15T14:45:51.859+00:00",
                    "profile": [
                        " https://hapi.fhir.tw/fhir/StructureDefinition/twcr-sf-target-therapy-profile"
                    ]
                },
                "text": {
                    "status": "empty",
                    "div": "<div xmlns=\"http://www.w3.org/1999/xhtml\">目前為空值，可根據使用需求自行產生這筆資料的摘要資訊並填入此欄位</div>"
                },
                "status": "completed",
                "category": {
                    "coding": [
                        {
                            "system": "https://mitw.dicom.org.tw/IG/TWCR/CodeSystem/procedure-code-codesystem",
                            "code": "TargetedTherapy",
                            "display": "申報醫院標靶治療"
                        }
                    ]
                },
                "code": {
                    "coding": [
                        {
                            "system": "https://mitw.dicom.org.tw/IG/TWCR/CodeSystem/targeted-therapy-codesystem",
                            "code": "00",
                            "display": "(1)未接受標靶治療，標靶治療非首次療程的一部份 (2)由屍體解剖時才診斷為癌症"
                        }
                    ]
                },
                "subject": {
                    "reference": "Patient/86602a9d-9210-4458-96af-31486a131c09"
                },
                "performedPeriod": {
                    "start": "2002-11-11"
                }
            }
        },
        {
            "resource": {
                "resourceType": "Observation",
                "id": "223d3959-fff8-4ae4-88bd-c2d7e7463783",
                "meta": {
                    "versionId": "1",
                    "lastUpdated": "2023-09-15T14:45:51.937+00:00",
                    "profile": [
                        " https://hapi.fhir.tw/fhir/StructureDefinition/twcr-sf-weight-profile"
                    ]
                },
                "text": {
                    "status": "empty",
                    "div": "<div xmlns=\"http://www.w3.org/1999/xhtml\">目前為空值，可根據使用需求自行產生這筆資料的摘要資訊並填入此欄位</div>"
                },
                "status": "registered",
                "code": {
                    "coding": [
                        {
                            "system": "http://loinc.org",
                            "code": "29463-7",
                            "display": "Body Weight"
                        }
                    ]
                },
                "valueCodeableConcept": {
                    "coding": [
                        {
                            "system": "https://mitw.dicom.org.tw/IG/TWCR/CodeSystem/weight-codesystem",
                            "code": "999",
                            "display": "病歷未記載或不詳"
                        }
                    ]
                }
            }
        }
    ]
}