{
    "resourceType": "Bundle",
    "id": "3fd6c306-fb72-4f66-8ecf-05ff5f347c7c",
    "meta": {
        "profile": [
            "https://hapi.fhir.tw/fhir/StructureDefinition/twcr-sf-bundle-profile"
        ]
    },
    "identifier": {
        "system": "https://www.cdc.gov.tw/",
        "value": "TWCR-SF-2023-09-29T13:23:58+08:00"
    },
    "type": "document",
    "timestamp": "2023-09-29T13:23:58+08:00",
    "entry": [
        {
            "fullUrl": "http://152.38.3.250:8080/fhir/Composition/bddd73f8-b13a-423d-a9a9-f806caf7927c",
            "resource": {
                "resourceType": "Composition",
                "id": "bddd73f8-b13a-423d-a9a9-f806caf7927c",
                "meta": {
                    "profile": [
                        "https://hapi.fhir.tw/fhir/StructureDefinition/twcr-sf-composition-profile"
                    ]
                },
                "text": {
                    "status": "generated",
                    "div": "<div xmlns=\"http://www.w3.org/1999/xhtml\"><p><b>Generated Narrative: Composition</b><a name=\"CompositionExample\"> </a></p><div style=\"display: inline-block; background-color: #d9e0e7; padding: 6px; margin: 4px; border: 1px solid #8da1b4; border-radius: 5px; line-height: 60%\"><p style=\"margin-bottom: 0px\">Resource Composition &quot;CompositionExample&quot; </p><p style=\"margin-bottom: 0px\">Profile: <a href=\"StructureDefinition-twcr-sf-composition-profile.html\">Composition</a></p></div><p><b>status</b>: final</p><p><b>type</b>: Cancer event report <span style=\"background: LightGoldenRodYellow; margin: 4px; border: 1px solid khaki\"> (<a href=\"https://loinc.org/\">LOINC</a>#72134-0)</span></p><p><b>date</b>: 2022-07-12 14:30:00+0800</p><p><b>author</b>: </p><ul><li><a href=\"Organization-OrganizationExample.html\">Organization/OrganizationExample</a></li><li><a href=\"Practitioner-PractitionerExample.html\">Practitioner/PractitionerExample</a></li></ul><p><b>title</b>: 癌症登記短表</p></div>"
                },
                "status": "final",
                "type": {
                    "coding": [
                        {
                            "system": "https://loinc.org",
                            "code": "72134-0",
                            "display": "Cancer event report"
                        }
                    ]
                },
                "subject": {
                    "reference": "Patient/0ed46368-db5d-4419-9d26-c51524842018"
                },
                "date": "2023-09-29T13:23:58+08:00",
                "author": [
                    {
                        "reference": "Organization/17ebfb14-df37-4883-86a8-44e781f38e47"
                    },
                    {
                        "reference": "Practitioner/5413c320-f380-4260-8aaf-7f787207f547"
                    }
                ],
                "title": "Cancer Registry Short Form",
                "section": [
                    {
                        "title": "The section of CancerConfirmation",
                        "code": {
                            "coding": [
                                {
                                    "system": "https://snomed.info/sct",
                                    "code": "395099008"
                                }
                            ]
                        },
                        "entry": [
                            {
                                "reference": "Encounter/1344ed69-ceb5-4cd4-82b9-a4763eafa10e"
                            },
                            {
                                "reference": "Condition/469d7638-54f5-4483-8004-f2c480e43dde"
                            },
                            {
                                "reference": "Condition/e2242120-e7a2-4ef0-8121-d91f81131a91"
                            },
                            {
                                "reference": "Condition/2cc51d59-0a83-40bb-aab0-536a53755495"
                            },
                            {
                                "reference": "Condition/93f64ced-4984-43e9-8672-5b68511d0c5b"
                            },
                            {
                                "reference": "Observation/af08a3ba-0882-4d5b-a92c-d1f23a5ddf71"
                            },
                            {
                                "reference": "Observation/cefcefb4-9ff2-4d7e-a7ff-dc838fa734b6"
                            }
                        ]
                    },
                    {
                        "title": "The section of FirstCourseOfTreatment",
                        "code": {
                            "coding": [
                                {
                                    "system": "https://snomed.info/sct",
                                    "code": "708255002"
                                }
                            ]
                        },
                        "entry": [
                            {
                                "reference": "Procedure/46f67c74-f0cb-40c5-a2b3-0265e8ce608b"
                            },
                            {
                                "reference": "Procedure/479fee15-3e9c-41c5-bbef-ea54358bc402"
                            },
                            {
                                "reference": "Procedure/77109ad7-445d-4221-992d-ac618aa4cec2"
                            },
                            {
                                "reference": "Procedure/f729dd9a-1333-4477-af81-8b052e2511fd"
                            },
                            {
                                "reference": "Procedure/7620f095-3325-49dc-b136-6633bef02e63"
                            },
                            {
                                "reference": "Procedure/6a3aeeec-4120-4f6d-a489-ac144d21e93c"
                            },
                            {
                                "reference": "Procedure/2d68f329-6197-48ad-b942-b0c8578e62da"
                            },
                            {
                                "reference": "Procedure/a1ee2a35-a77b-442e-b307-9e730aefd408"
                            },
                            {
                                "reference": "Procedure/4be110a2-c52f-42d9-a51a-360eb2f45df1"
                            },
                            {
                                "reference": "Procedure/e2fa4097-4041-49b7-806a-b5b93bf40f99"
                            }
                        ]
                    },
                    {
                        "title": "The section of OtherFactors",
                        "code": {
                            "coding": [
                                {
                                    "system": "https://hapi.fhir.tw/fhir/CodeSystem/twcr-sf-logical-model-codesystem",
                                    "code": "OtherFactors"
                                }
                            ]
                        },
                        "entry": [
                            {
                                "reference": "Observation/5c4f8dde-147a-40a8-b545-c548b5c21974"
                            },
                            {
                                "reference": "Observation/5e137777-831c-45f1-958a-b200aea2f81d"
                            },
                            {
                                "reference": "Observation/0981a918-c3f8-4fc6-93b1-c731e4a04e6b"
                            },
                            {
                                "reference": "Observation/9aa1ec11-0869-4b2a-8666-a22d374755f2"
                            },
                            {
                                "reference": "Observation/eb1580a4-750d-4f0a-b362-83b0546613cd"
                            }
                        ]
                    }
                ]
            }
        },
        {
            "fullUrl": "http://152.38.3.250:8080/fhir/Organization/17ebfb14-df37-4883-86a8-44e781f38e47",
            "resource": {
                "resourceType": "Organization",
                "id": "17ebfb14-df37-4883-86a8-44e781f38e47",
                "meta": {
                    "versionId": "1",
                    "lastUpdated": "2023-09-29T05:23:58.450+00:00",
                    "source": "#wUE5AaJ969jQHayn",
                    "profile": [
                        "https://hapi.fhir.tw/fhir/StructureDefinition/twcr-sf-organization-profile"
                    ]
                },
                "text": {
                    "status": "empty",
                    "div": "<div xmlns=\"http://www.w3.org/1999/xhtml\">目前為空值，可根據使用需求自行產生這筆資料的摘要資訊並填入此欄位</div>"
                },
                "identifier": [
                    {
                        "value": "0000016"
                    }
                ]
            }
        },
        {
            "fullUrl": "http://152.38.3.250:8080/fhir/Patient/0ed46368-db5d-4419-9d26-c51524842018",
            "resource": {
                "resourceType": "Patient",
                "id": "0ed46368-db5d-4419-9d26-c51524842018",
                "meta": {
                    "versionId": "1",
                    "lastUpdated": "2023-09-29T05:23:58.532+00:00",
                    "source": "#fgMq03jpn5xCF1Bq",
                    "profile": [
                        "https://hapi.fhir.tw/fhir/StructureDefinition/twcr-sf-patient-profile"
                    ]
                },
                "text": {
                    "status": "empty",
                    "div": "<div xmlns=\"http://www.w3.org/1999/xhtml\">目前為空值，可根據使用需求自行產生這筆資料的摘要資訊並填入此欄位</div>"
                },
                "identifier": [
                    {
                        "type": {
                            "coding": [
                                {
                                    "system": "http://terminology.hl7.org/CodeSystem/v2-0203",
                                    "code": "NNxxx",
                                    "display": "National Person Identifier where the xxx is the ISO table 3166 3-character (alphabetic) country code"
                                }
                            ]
                        },
                        "system": "http://www.moi.gov.tw",
                        "value": "F130000002"
                    },
                    {
                        "type": {
                            "coding": [
                                {
                                    "system": "http://terminology.hl7.org/CodeSystem/v2-0203",
                                    "code": "MR",
                                    "display": "Medical record number"
                                }
                            ]
                        },
                        "system": "https://www.vghtpe.gov.tw/Index.action",
                        "value": "A01112"
                    }
                ],
                "name": [
                    {
                        "text": "許○○"
                    }
                ],
                "gender": "female",
                "birthDate": "1956-11-20",
                "address": [
                    {
                        "postalCode": "3128"
                    }
                ],
                "managingOrganization": {
                    "reference": "Organization/17ebfb14-df37-4883-86a8-44e781f38e47"
                }
            }
        },
        {
            "fullUrl": "http://152.38.3.250:8080/fhir/Practitioner/5413c320-f380-4260-8aaf-7f787207f547",
            "resource": {
                "resourceType": "Practitioner",
                "id": "5413c320-f380-4260-8aaf-7f787207f547",
                "meta": {
                    "versionId": "1",
                    "lastUpdated": "2023-09-29T05:23:58.586+00:00",
                    "source": "#xkyhCVfJGmVu5KnN",
                    "profile": [
                        "https://hapi.fhir.tw/fhir/StructureDefinition/twcr-sf-practitioner-profile"
                    ]
                },
                "text": {
                    "status": "empty",
                    "div": "<div xmlns=\"http://www.w3.org/1999/xhtml\">目前為空值，可根據使用需求自行產生這筆資料的摘要資訊並填入此欄位</div>"
                },
                "identifier": [
                    {
                        "value": "099A0059"
                    }
                ]
            }
        },
        {
            "fullUrl": "http://152.38.3.250:8080/fhir/Encounter/1344ed69-ceb5-4cd4-82b9-a4763eafa10e",
            "resource": {
                "resourceType": "Encounter",
                "id": "1344ed69-ceb5-4cd4-82b9-a4763eafa10e",
                "meta": {
                    "versionId": "1",
                    "lastUpdated": "2023-09-29T05:23:58.653+00:00",
                    "source": "#f0JlyFBdYH2VzlEO",
                    "profile": [
                        "https://hapi.fhir.tw/fhir/StructureDefinition/twcr-sf-encounter-profile"
                    ]
                },
                "text": {
                    "status": "empty",
                    "div": "<div xmlns=\"http://www.w3.org/1999/xhtml\">目前為空值，可根據使用需求自行產生這筆資料的摘要資訊並填入此欄位</div>"
                },
                "status": "finished",
                "class": {
                    "system": "https://terminology.hl7.org/CodeSystem/v3-ActCode",
                    "code": "AMB",
                    "display": "ambulatory"
                },
                "subject": {
                    "reference": "Patient/0ed46368-db5d-4419-9d26-c51524842018"
                },
                "period": {
                    "start": "2017-06-22"
                }
            }
        },
        {
            "fullUrl": "http://152.38.3.250:8080/fhir/Observation/9aa1ec11-0869-4b2a-8666-a22d374755f2",
            "resource": {
                "resourceType": "Observation",
                "id": "9aa1ec11-0869-4b2a-8666-a22d374755f2",
                "meta": {
                    "versionId": "1",
                    "lastUpdated": "2023-09-29T05:23:58.702+00:00",
                    "source": "#lPUfwVUhxqM89GDP",
                    "profile": [
                        "https://hapi.fhir.tw/fhir/StructureDefinition/twcr-sf-betel-nut-chewing-behavior-profile"
                    ]
                },
                "text": {
                    "status": "empty",
                    "div": "<div xmlns=\"http://www.w3.org/1999/xhtml\">目前為空值，可根據使用需求自行產生這筆資料的摘要資訊並填入此欄位</div>"
                },
                "status": "registered",
                "code": {
                    "coding": [
                        {
                            "system": "https://hapi.fhir.tw/fhir/CodeSystem/twcr-sf-observation-behavior-codesystem",
                            "code": "BetelNutChewing",
                            "display": "嚼檳榔行為"
                        }
                    ]
                },
                "subject": {
                    "reference": "Patient/0ed46368-db5d-4419-9d26-c51524842018"
                },
                "component": [
                    {
                        "code": {
                            "coding": [
                                {
                                    "system": "https://hapi.fhir.tw/fhir/CodeSystem/twcr-sf-betel-nut-chewing-behavior-codesystem",
                                    "code": "amount",
                                    "display": "每日嚼檳榔量，以 ”顆” 計算"
                                }
                            ]
                        },
                        "valueCodeableConcept": {
                            "coding": [
                                {
                                    "system": "https://hapi.fhir.tw/fhir/CodeSystem/twcr-sf-betel-nut-chewing-amount-codesystem",
                                    "code": "99",
                                    "display": "病歷未記載或嚼檳榔狀態完全不詳者"
                                }
                            ]
                        }
                    },
                    {
                        "code": {
                            "coding": [
                                {
                                    "system": "https://hapi.fhir.tw/fhir/CodeSystem/twcr-sf-betel-nut-chewing-behavior-codesystem",
                                    "code": "year",
                                    "display": "嚼檳榔年"
                                }
                            ]
                        },
                        "valueCodeableConcept": {
                            "coding": [
                                {
                                    "system": "https://hapi.fhir.tw/fhir/CodeSystem/twcr-sf-betel-nut-chewing-year-codesystem",
                                    "code": "99",
                                    "display": "病歷未記載或嚼檳榔狀態完全不詳者"
                                }
                            ]
                        }
                    },
                    {
                        "code": {
                            "coding": [
                                {
                                    "system": "https://hapi.fhir.tw/fhir/CodeSystem/twcr-sf-betel-nut-chewing-behavior-codesystem",
                                    "code": "quit",
                                    "display": "戒嚼檳榔年"
                                }
                            ]
                        },
                        "valueCodeableConcept": {
                            "coding": [
                                {
                                    "system": "https://hapi.fhir.tw/fhir/CodeSystem/twcr-sf-betel-nut-chewing-quit-codesystem",
                                    "code": "99",
                                    "display": "病歷未記載或戒嚼檳榔狀態完全不詳者"
                                }
                            ]
                        }
                    }
                ]
            }
        },
        {
            "fullUrl": "http://152.38.3.250:8080/fhir/Procedure/f729dd9a-1333-4477-af81-8b052e2511fd",
            "resource": {
                "resourceType": "Procedure",
                "id": "f729dd9a-1333-4477-af81-8b052e2511fd",
                "meta": {
                    "versionId": "1",
                    "lastUpdated": "2023-09-29T05:23:58.758+00:00",
                    "source": "#FKRJm8eblO2ZlHJy",
                    "profile": [
                        "https://hapi.fhir.tw/fhir/StructureDefinition/twcr-sf-chemotherapy-profile"
                    ]
                },
                "text": {
                    "status": "empty",
                    "div": "<div xmlns=\"http://www.w3.org/1999/xhtml\">目前為空值，可根據使用需求自行產生這筆資料的摘要資訊並填入此欄位</div>"
                },
                "status": "completed",
                "category": {
                    "coding": [
                        {
                            "system": "https://hapi.fhir.tw/fhir/CodeSystem/twcr-sf-procedure-code-codesystem",
                            "code": "Chemotherapy",
                            "display": "申報醫院化學治療"
                        }
                    ]
                },
                "code": {
                    "coding": [
                        {
                            "system": "https://hapi.fhir.tw/fhir/CodeSystem/twcr-sf-chemotherapy-codesystem",
                            "code": "01",
                            "display": "接受全身性化學治療"
                        }
                    ]
                },
                "subject": {
                    "reference": "Patient/0ed46368-db5d-4419-9d26-c51524842018"
                },
                "performedPeriod": {
                    "start": "2002-11-11"
                }
            }
        },
        {
            "fullUrl": "http://152.38.3.250:8080/fhir/Condition/469d7638-54f5-4483-8004-f2c480e43dde",
            "resource": {
                "resourceType": "Condition",
                "id": "469d7638-54f5-4483-8004-f2c480e43dde",
                "meta": {
                    "versionId": "1",
                    "lastUpdated": "2023-09-29T05:23:58.807+00:00",
                    "source": "#HwbLv5o1bu7syoxB",
                    "profile": [
                        "https://hapi.fhir.tw/fhir/StructureDefinition/twcr-sf-condition-profile"
                    ]
                },
                "text": {
                    "status": "empty",
                    "div": "<div xmlns=\"http://www.w3.org/1999/xhtml\">目前為空值，可根據使用需求自行產生這筆資料的摘要資訊並填入此欄位</div>"
                },
                "category": [
                    {
                        "coding": [
                            {
                                "system": "https://hapi.fhir.tw/fhir/CodeSystem/twcr-sf-class-of-case-codesystem",
                                "code": "0",
                                "display": "申報醫院診斷，但未於申報醫院接受首次療程"
                            }
                        ]
                    },
                    {
                        "coding": [
                            {
                                "system": "https://hapi.fhir.tw/fhir/CodeSystem/twcr-sf-class-of-diangosis-status-codesystem",
                                "code": "1",
                                "display": "於申報醫院診斷"
                            }
                        ]
                    },
                    {
                        "coding": [
                            {
                                "system": "https://hapi.fhir.tw/fhir/CodeSystem/twcr-sf-class-of-treatment-status-codesystem",
                                "code": "0",
                                "display": "未於申報醫院接受任何治療即死亡：(1)申報醫院診斷後死亡或病危出院 (2)他院診斷，轉診至申報醫院後死亡"
                            }
                        ]
                    }
                ],
                "code": {
                    "coding": [
                        {
                            "system": "https://hapi.fhir.tw/fhir/CodeSystem/twcr-sf-sequence-number-codesystem",
                            "code": "01",
                            "display": "個案一生中第 1 個惡性腫瘤或原位癌"
                        }
                    ]
                },
                "subject": {
                    "reference": "Patient/0ed46368-db5d-4419-9d26-c51524842018"
                },
                "encounter": {
                    "reference": "Encounter/1344ed69-ceb5-4cd4-82b9-a4763eafa10e"
                },
                "onsetAge": {
                    "value": 60,
                    "system": "http://unitsofmeasure.org",
                    "code": "a"
                },
                "recorder": {
                    "reference": "Practitioner/5413c320-f380-4260-8aaf-7f787207f547"
                },
                "evidence": [
                    {
                        "code": [
                            {
                                "coding": [
                                    {
                                        "system": "https://hapi.fhir.tw/fhir/CodeSystem/twcr-sf-diagnostic-confirmation-codesystem",
                                        "code": "7",
                                        "display": "放射線或其他影像學檢查診斷為癌症，但未經顯微鏡檢證實"
                                    }
                                ]
                            }
                        ]
                    }
                ]
            }
        },
        {
            "fullUrl": "http://152.38.3.250:8080/fhir/Condition/e2242120-e7a2-4ef0-8121-d91f81131a91",
            "resource": {
                "resourceType": "Condition",
                "id": "e2242120-e7a2-4ef0-8121-d91f81131a91",
                "meta": {
                    "versionId": "1",
                    "lastUpdated": "2023-09-29T05:23:58.861+00:00",
                    "source": "#HQa803icIaKLU552",
                    "profile": [
                        "https://hapi.fhir.tw/fhir/StructureDefinition/twcr-sf-date-of-diagnosis-condition-profile"
                    ]
                },
                "text": {
                    "status": "empty",
                    "div": "<div xmlns=\"http://www.w3.org/1999/xhtml\">目前為空值，可根據使用需求自行產生這筆資料的摘要資訊並填入此欄位</div>"
                },
                "subject": {
                    "reference": "Patient/0ed46368-db5d-4419-9d26-c51524842018"
                },
                "onsetPeriod": {
                    "start": "2017-06-22"
                }
            }
        },
        {
            "fullUrl": "http://152.38.3.250:8080/fhir/Condition/2cc51d59-0a83-40bb-aab0-536a53755495",
            "resource": {
                "resourceType": "Condition",
                "id": "2cc51d59-0a83-40bb-aab0-536a53755495",
                "meta": {
                    "versionId": "1",
                    "lastUpdated": "2023-09-29T05:23:58.933+00:00",
                    "source": "#QFBlwUU36YtmU61A",
                    "profile": [
                        "https://hapi.fhir.tw/fhir/StructureDefinition/twcr-sf-date-of-microscopic-confirmation-profile"
                    ]
                },
                "text": {
                    "status": "empty",
                    "div": "<div xmlns=\"http://www.w3.org/1999/xhtml\">目前為空值，可根據使用需求自行產生這筆資料的摘要資訊並填入此欄位</div>"
                },
                "subject": {
                    "reference": "Patient/0ed46368-db5d-4419-9d26-c51524842018"
                },
                "onsetDateTime": "2002-11-11"
            }
        },
        {
            "fullUrl": "http://152.38.3.250:8080/fhir/Observation/eb1580a4-750d-4f0a-b362-83b0546613cd",
            "resource": {
                "resourceType": "Observation",
                "id": "eb1580a4-750d-4f0a-b362-83b0546613cd",
                "meta": {
                    "versionId": "1",
                    "lastUpdated": "2023-09-29T05:23:58.995+00:00",
                    "source": "#uJsqI3Bb1zox9vVT",
                    "profile": [
                        "https://hapi.fhir.tw/fhir/StructureDefinition/twcr-sf-drinking-behavior-profile"
                    ]
                },
                "text": {
                    "status": "empty",
                    "div": "<div xmlns=\"http://www.w3.org/1999/xhtml\">目前為空值，可根據使用需求自行產生這筆資料的摘要資訊並填入此欄位</div>"
                },
                "status": "registered",
                "code": {
                    "coding": [
                        {
                            "system": "https://hapi.fhir.tw/fhir/CodeSystem/twcr-sf-observation-behavior-codesystem",
                            "code": "Drinking",
                            "display": "喝酒行為"
                        }
                    ]
                },
                "subject": {
                    "reference": "Patient/0ed46368-db5d-4419-9d26-c51524842018"
                },
                "encounter": {
                    "reference": "Encounter/1344ed69-ceb5-4cd4-82b9-a4763eafa10e"
                },
                "valueCodeableConcept": {
                    "coding": [
                        {
                            "system": "https://hapi.fhir.tw/fhir/CodeSystem/twcr-sf-drinking-behavior-codesystem",
                            "code": "999",
                            "display": "病歷未記載或不詳"
                        }
                    ]
                }
            }
        },
        {
            "fullUrl": "http://152.38.3.250:8080/fhir/Procedure/46f67c74-f0cb-40c5-a2b3-0265e8ce608b",
            "resource": {
                "resourceType": "Procedure",
                "id": "46f67c74-f0cb-40c5-a2b3-0265e8ce608b",
                "meta": {
                    "versionId": "1",
                    "lastUpdated": "2023-09-29T05:23:59.040+00:00",
                    "source": "#d36mfMvRKrbsqAY1",
                    "profile": [
                        "https://hapi.fhir.tw/fhir/StructureDefinition/twcr-sf-first-surgical-procedure-profile"
                    ]
                },
                "text": {
                    "status": "empty",
                    "div": "<div xmlns=\"http://www.w3.org/1999/xhtml\">目前為空值，可根據使用需求自行產生這筆資料的摘要資訊並填入此欄位</div>"
                },
                "status": "completed",
                "code": {
                    "coding": [
                        {
                            "system": "https://hapi.fhir.tw/fhir/CodeSystem/twcr-sf-procedure-code-codesystem",
                            "code": "FirstSurgicalProcedure",
                            "display": "首次手術"
                        }
                    ]
                },
                "subject": {
                    "reference": "Patient/0ed46368-db5d-4419-9d26-c51524842018"
                },
                "encounter": {
                    "reference": "Encounter/1344ed69-ceb5-4cd4-82b9-a4763eafa10e"
                },
                "performedDateTime": "2002-11-11"
            }
        },
        {
            "fullUrl": "http://152.38.3.250:8080/fhir/Observation/af08a3ba-0882-4d5b-a92c-d1f23a5ddf71",
            "resource": {
                "resourceType": "Observation",
                "id": "af08a3ba-0882-4d5b-a92c-d1f23a5ddf71",
                "meta": {
                    "versionId": "1",
                    "lastUpdated": "2023-09-29T05:23:59.086+00:00",
                    "source": "#Q9rvaTtxZ7sruK1n",
                    "profile": [
                        "https://hapi.fhir.tw/fhir/StructureDefinition/twcr-sf-grade-clinical-profile"
                    ]
                },
                "text": {
                    "status": "empty",
                    "div": "<div xmlns=\"http://www.w3.org/1999/xhtml\">目前為空值，可根據使用需求自行產生這筆資料的摘要資訊並填入此欄位</div>"
                },
                "status": "registered",
                "code": {
                    "coding": [
                        {
                            "system": "https://loinc.org",
                            "code": "75620-5",
                            "display": "TNM clinical staging before treatment panel Cancer"
                        }
                    ]
                },
                "subject": {
                    "reference": "Patient/0ed46368-db5d-4419-9d26-c51524842018"
                },
                "encounter": {
                    "reference": "Encounter/1344ed69-ceb5-4cd4-82b9-a4763eafa10e"
                },
                "valueCodeableConcept": {
                    "coding": [
                        {
                            "system": "https://hapi.fhir.tw/fhir/CodeSystem/twcr-sf-grade-clinical-codesystem",
                            "code": "9",
                            "display": "(1)分化/分級不明、病歷未記載 (2)首次治療前未有分級/分化 (3)術後才診斷為癌症"
                        }
                    ]
                }
            }
        },
        {
            "fullUrl": "http://152.38.3.250:8080/fhir/Observation/cefcefb4-9ff2-4d7e-a7ff-dc838fa734b6",
            "resource": {
                "resourceType": "Observation",
                "id": "cefcefb4-9ff2-4d7e-a7ff-dc838fa734b6",
                "meta": {
                    "versionId": "1",
                    "lastUpdated": "2023-09-29T05:23:59.135+00:00",
                    "source": "#3YA5saERaShKhDC5",
                    "profile": [
                        "https://hapi.fhir.tw/fhir/StructureDefinition/twcr-sf-grade-pathological-profile"
                    ]
                },
                "text": {
                    "status": "empty",
                    "div": "<div xmlns=\"http://www.w3.org/1999/xhtml\">目前為空值，可根據使用需求自行產生這筆資料的摘要資訊並填入此欄位</div>"
                },
                "status": "registered",
                "code": {
                    "coding": [
                        {
                            "system": "https://loinc.org",
                            "code": "75621-3",
                            "display": "TNM pathologic staging after surgery panel Cancer"
                        }
                    ]
                },
                "subject": {
                    "reference": "Patient/0ed46368-db5d-4419-9d26-c51524842018"
                },
                "encounter": {
                    "reference": "Encounter/1344ed69-ceb5-4cd4-82b9-a4763eafa10e"
                },
                "valueCodeableConcept": {
                    "coding": [
                        {
                            "system": "https://hapi.fhir.tw/fhir/CodeSystem/twcr-sf-grade-pathological-codesystem",
                            "code": "9",
                            "display": "(1)分化/分級不明、病歷未記載 (2)首次治療前未有分級/分化 (3)術後才診斷為癌症"
                        }
                    ]
                }
            }
        },
        {
            "fullUrl": "http://152.38.3.250:8080/fhir/Observation/5c4f8dde-147a-40a8-b545-c548b5c21974",
            "resource": {
                "resourceType": "Observation",
                "id": "5c4f8dde-147a-40a8-b545-c548b5c21974",
                "meta": {
                    "versionId": "1",
                    "lastUpdated": "2023-09-29T05:23:59.183+00:00",
                    "source": "#fhVB7xgT2I9uKmFz",
                    "profile": [
                        "https://hapi.fhir.tw/fhir/StructureDefinition/twcr-sf-height-profile"
                    ]
                },
                "text": {
                    "status": "empty",
                    "div": "<div xmlns=\"http://www.w3.org/1999/xhtml\">目前為空值，可根據使用需求自行產生這筆資料的摘要資訊並填入此欄位</div>"
                },
                "status": "registered",
                "code": {
                    "coding": [
                        {
                            "system": "https://loinc.org",
                            "code": "3137-7",
                            "display": "Body height Measured"
                        }
                    ]
                },
                "subject": {
                    "reference": "Patient/0ed46368-db5d-4419-9d26-c51524842018"
                },
                "encounter": {
                    "reference": "Encounter/1344ed69-ceb5-4cd4-82b9-a4763eafa10e"
                },
                "valueCodeableConcept": {
                    "coding": [
                        {
                            "system": "https://hapi.fhir.tw/fhir/CodeSystem/twcr-sf-height-codesystem",
                            "code": "999",
                            "display": "病歷未記載或不詳"
                        }
                    ]
                }
            }
        },
        {
            "fullUrl": "http://152.38.3.250:8080/fhir/Procedure/2d68f329-6197-48ad-b942-b0c8578e62da",
            "resource": {
                "resourceType": "Procedure",
                "id": "2d68f329-6197-48ad-b942-b0c8578e62da",
                "meta": {
                    "versionId": "1",
                    "lastUpdated": "2023-09-29T05:23:59.234+00:00",
                    "source": "#cEZGU1KXg1Ooli5N",
                    "profile": [
                        "https://hapi.fhir.tw/fhir/StructureDefinition/twcr-sf-hematologic-transplant-endocrine-procedure-profile"
                    ]
                },
                "text": {
                    "status": "empty",
                    "div": "<div xmlns=\"http://www.w3.org/1999/xhtml\">目前為空值，可根據使用需求自行產生這筆資料的摘要資訊並填入此欄位</div>"
                },
                "status": "completed",
                "category": {
                    "coding": [
                        {
                            "system": "https://hapi.fhir.tw/fhir/CodeSystem/twcr-sf-procedure-code-codesystem",
                            "code": "HematologicTransplantAndEndocrineProcedure",
                            "display": "申報醫院骨髓/幹細胞移植或內分泌處置"
                        }
                    ]
                },
                "code": {
                    "coding": [
                        {
                            "system": "https://hapi.fhir.tw/fhir/CodeSystem/twcr-sf-hematologic-transplant-and-endocrine-codesystem",
                            "code": "10",
                            "display": "有骨髓移植"
                        }
                    ]
                },
                "subject": {
                    "reference": "Patient/0ed46368-db5d-4419-9d26-c51524842018"
                },
                "encounter": {
                    "reference": "Encounter/1344ed69-ceb5-4cd4-82b9-a4763eafa10e"
                },
                "performedPeriod": {
                    "start": "2002-11-11"
                }
            }
        },
        {
            "fullUrl": "http://152.38.3.250:8080/fhir/Procedure/7620f095-3325-49dc-b136-6633bef02e63",
            "resource": {
                "resourceType": "Procedure",
                "id": "7620f095-3325-49dc-b136-6633bef02e63",
                "meta": {
                    "versionId": "1",
                    "lastUpdated": "2023-09-29T05:23:59.287+00:00",
                    "source": "#in1MMgvxdvl3IsFq",
                    "profile": [
                        "https://hapi.fhir.tw/fhir/StructureDefinition/twcr-sf-hormone-steroid-therapy-profile"
                    ]
                },
                "text": {
                    "status": "empty",
                    "div": "<div xmlns=\"http://www.w3.org/1999/xhtml\">目前為空值，可根據使用需求自行產生這筆資料的摘要資訊並填入此欄位</div>"
                },
                "status": "completed",
                "category": {
                    "coding": [
                        {
                            "system": "https://hapi.fhir.tw/fhir/CodeSystem/twcr-sf-procedure-code-codesystem",
                            "code": "HormoneSteroid",
                            "display": "申報醫院荷爾蒙/類固醇治療"
                        }
                    ]
                },
                "code": {
                    "coding": [
                        {
                            "system": "https://hapi.fhir.tw/fhir/CodeSystem/twcr-sf-hormone-steroid-therapy-codesystem",
                            "code": "00",
                            "display": "(1)未接受荷爾蒙/類固醇治療，荷爾蒙/類固醇治療非首次療程的一部份 (2)由屍體解剖時才診斷為癌症"
                        }
                    ]
                },
                "subject": {
                    "reference": "Patient/0ed46368-db5d-4419-9d26-c51524842018"
                },
                "performedPeriod": {
                    "start": "2002-11-11"
                }
            }
        },
        {
            "fullUrl": "http://152.38.3.250:8080/fhir/Procedure/6a3aeeec-4120-4f6d-a489-ac144d21e93c",
            "resource": {
                "resourceType": "Procedure",
                "id": "6a3aeeec-4120-4f6d-a489-ac144d21e93c",
                "meta": {
                    "versionId": "1",
                    "lastUpdated": "2023-09-29T05:23:59.337+00:00",
                    "source": "#gm8C88jygGJRmY96",
                    "profile": [
                        "https://hapi.fhir.tw/fhir/StructureDefinition/twcr-sf-immunotherapy-profile"
                    ]
                },
                "text": {
                    "status": "empty",
                    "div": "<div xmlns=\"http://www.w3.org/1999/xhtml\">目前為空值，可根據使用需求自行產生這筆資料的摘要資訊並填入此欄位</div>"
                },
                "status": "completed",
                "category": {
                    "coding": [
                        {
                            "system": "https://hapi.fhir.tw/fhir/CodeSystem/twcr-sf-procedure-code-codesystem",
                            "code": "Immunotherapy",
                            "display": "申報醫院免疫治療"
                        }
                    ]
                },
                "code": {
                    "coding": [
                        {
                            "system": "https://hapi.fhir.tw/fhir/CodeSystem/twcr-sf-immunotherapy-codesystem",
                            "code": "00",
                            "display": "(1)未接受免疫治療，免疫治療非首次療程的一部份 (2)由屍體解剖時才診斷為癌症"
                        }
                    ]
                },
                "subject": {
                    "reference": "Patient/0ed46368-db5d-4419-9d26-c51524842018"
                },
                "performedPeriod": {
                    "start": "2002-11-11"
                }
            }
        },
        {
            "fullUrl": "http://152.38.3.250:8080/fhir/Procedure/e2fa4097-4041-49b7-806a-b5b93bf40f99",
            "resource": {
                "resourceType": "Procedure",
                "id": "e2fa4097-4041-49b7-806a-b5b93bf40f99",
                "meta": {
                    "versionId": "1",
                    "lastUpdated": "2023-09-29T05:23:59.394+00:00",
                    "source": "#HwOpiahJnN05SFxx",
                    "profile": [
                        "https://hapi.fhir.tw/fhir/StructureDefinition/twcr-sf-other-treatment-profile"
                    ]
                },
                "text": {
                    "status": "empty",
                    "div": "<div xmlns=\"http://www.w3.org/1999/xhtml\">目前為空值，可根據使用需求自行產生這筆資料的摘要資訊並填入此欄位</div>"
                },
                "status": "completed",
                "category": {
                    "coding": [
                        {
                            "system": "https://hapi.fhir.tw/fhir/CodeSystem/twcr-sf-procedure-code-codesystem",
                            "code": "OtherTreatment",
                            "display": "申報醫院其他治療"
                        }
                    ]
                },
                "code": {
                    "coding": [
                        {
                            "system": "https://hapi.fhir.tw/fhir/CodeSystem/twcr-sf-other-treatment-codesystem",
                            "code": "00",
                            "display": "(1)未接受其他治療，其他治療非首次療程的一部份 (2)由屍體解剖時才診斷為癌症 (3)個案於申報醫院接受臨床試驗藥物治療，且依據藥物種類編碼於化學/荷爾蒙/類固醇/免疫/標靶欄位"
                        }
                    ]
                },
                "subject": {
                    "reference": "Patient/0ed46368-db5d-4419-9d26-c51524842018"
                },
                "performedPeriod": {
                    "start": "2002-11-11"
                }
            }
        },
        {
            "fullUrl": "http://152.38.3.250:8080/fhir/Procedure/4be110a2-c52f-42d9-a51a-360eb2f45df1",
            "resource": {
                "resourceType": "Procedure",
                "id": "4be110a2-c52f-42d9-a51a-360eb2f45df1",
                "meta": {
                    "versionId": "1",
                    "lastUpdated": "2023-09-29T05:23:59.463+00:00",
                    "source": "#nInGw6OAJGVzjwk6",
                    "profile": [
                        "https://hapi.fhir.tw/fhir/StructureDefinition/twcr-sf-palliative-care-profile"
                    ]
                },
                "text": {
                    "status": "empty",
                    "div": "<div xmlns=\"http://www.w3.org/1999/xhtml\">目前為空值，可根據使用需求自行產生這筆資料的摘要資訊並填入此欄位</div>"
                },
                "status": "completed",
                "category": {
                    "coding": [
                        {
                            "system": "https://hapi.fhir.tw/fhir/CodeSystem/twcr-sf-procedure-code-codesystem",
                            "code": "PalliativeCare",
                            "display": "申報醫院緩和照護"
                        }
                    ]
                },
                "code": {
                    "coding": [
                        {
                            "system": "https://hapi.fhir.tw/fhir/CodeSystem/twcr-sf-palliative-care-codesystem",
                            "code": "0",
                            "display": "(1)個案未接受緩和照護 (2)屍體解剖時才診斷為癌症"
                        }
                    ]
                },
                "subject": {
                    "reference": "Patient/0ed46368-db5d-4419-9d26-c51524842018"
                },
                "encounter": {
                    "reference": "Encounter/1344ed69-ceb5-4cd4-82b9-a4763eafa10e"
                }
            }
        },
        {
            "fullUrl": "http://152.38.3.250:8080/fhir/Condition/93f64ced-4984-43e9-8672-5b68511d0c5b",
            "resource": {
                "resourceType": "Condition",
                "id": "93f64ced-4984-43e9-8672-5b68511d0c5b",
                "meta": {
                    "versionId": "1",
                    "lastUpdated": "2023-09-29T05:23:59.510+00:00",
                    "source": "#wTauADGwwAdnpluM",
                    "profile": [
                        "https://hapi.fhir.tw/fhir/StructureDefinition/twcr-sf-primary-cancer-profile"
                    ]
                },
                "text": {
                    "status": "empty",
                    "div": "<div xmlns=\"http://www.w3.org/1999/xhtml\">目前為空值，可根據使用需求自行產生這筆資料的摘要資訊並填入此欄位</div>"
                },
                "extension": [
                    {
                        "url": "https://hapi.fhir.tw/fhir/StructureDefinition/twcr-sf-histology-extension",
                        "valueCodeableConcept": {
                            "coding": [
                                {
                                    "system": "https://hapi.fhir.tw/fhir/CodeSystem/twcr-sf-histology-codesystem",
                                    "code": "8001",
                                    "display": "Tumor cells, malignant"
                                }
                            ]
                        }
                    },
                    {
                        "url": "https://hapi.fhir.tw/fhir/StructureDefinition/twcr-sf-behavior-code-extension",
                        "valueCodeableConcept": {
                            "coding": [
                                {
                                    "system": "https://hapi.fhir.tw/fhir/CodeSystem/twcr-sf-behavior-code-codesystem",
                                    "code": "3",
                                    "display": "invasive"
                                }
                            ]
                        }
                    }
                ],
                "bodySite": [
                    {
                        "coding": [
                            {
                                "system": "https://hapi.fhir.tw/fhir/CodeSystem/twcr-sf-primary-site-codesystem",
                                "code": "C000",
                                "display": "External lip upper"
                            }
                        ]
                    },
                    {
                        "coding": [
                            {
                                "system": "https://hapi.fhir.tw/fhir/CodeSystem/twcr-sf-laterality-codesystem",
                                "code": "1",
                                "display": "原發起源位在右側"
                            }
                        ]
                    }
                ],
                "subject": {
                    "reference": "Patient/0ed46368-db5d-4419-9d26-c51524842018"
                },
                "encounter": {
                    "reference": "Encounter/1344ed69-ceb5-4cd4-82b9-a4763eafa10e"
                },
                "recorder": {
                    "reference": "Practitioner/5413c320-f380-4260-8aaf-7f787207f547"
                }
            }
        },
        {
            "fullUrl": "http://152.38.3.250:8080/fhir/Procedure/77109ad7-445d-4221-992d-ac618aa4cec2",
            "resource": {
                "resourceType": "Procedure",
                "id": "77109ad7-445d-4221-992d-ac618aa4cec2",
                "meta": {
                    "versionId": "1",
                    "lastUpdated": "2023-09-29T05:23:59.556+00:00",
                    "source": "#KvkcwTRyIlpw9YjP",
                    "profile": [
                        "https://hapi.fhir.tw/fhir/StructureDefinition/twcr-sf-rt-profile"
                    ]
                },
                "text": {
                    "status": "empty",
                    "div": "<div xmlns=\"http://www.w3.org/1999/xhtml\">目前為空值，可根據使用需求自行產生這筆資料的摘要資訊並填入此欄位</div>"
                },
                "status": "completed",
                "category": {
                    "coding": [
                        {
                            "system": "https://hapi.fhir.tw/fhir/CodeSystem/twcr-sf-procedure-code-codesystem",
                            "code": "RT",
                            "display": "申報醫院放射治療"
                        }
                    ]
                },
                "code": {
                    "coding": [
                        {
                            "system": "https://hapi.fhir.tw/fhir/CodeSystem/twcr-sf-institute-of-RT-codesystem",
                            "code": "0",
                            "display": "個案未做放射治療"
                        }
                    ]
                },
                "subject": {
                    "reference": "Patient/0ed46368-db5d-4419-9d26-c51524842018"
                },
                "encounter": {
                    "reference": "Encounter/1344ed69-ceb5-4cd4-82b9-a4763eafa10e"
                },
                "performedPeriod": {
                    "start": "2020-03-06"
                }
            }
        },
        {
            "fullUrl": "http://152.38.3.250:8080/fhir/Observation/0981a918-c3f8-4fc6-93b1-c731e4a04e6b",
            "resource": {
                "resourceType": "Observation",
                "id": "0981a918-c3f8-4fc6-93b1-c731e4a04e6b",
                "meta": {
                    "versionId": "1",
                    "lastUpdated": "2023-09-29T05:23:59.614+00:00",
                    "source": "#iMuqL5GAxXaKPno0",
                    "profile": [
                        "https://hapi.fhir.tw/fhir/StructureDefinition/twcr-sf-smoking-behavior-profile"
                    ]
                },
                "text": {
                    "status": "empty",
                    "div": "<div xmlns=\"http://www.w3.org/1999/xhtml\">目前為空值，可根據使用需求自行產生這筆資料的摘要資訊並填入此欄位</div>"
                },
                "status": "registered",
                "code": {
                    "coding": [
                        {
                            "system": "https://hapi.fhir.tw/fhir/CodeSystem/twcr-sf-observation-behavior-codesystem",
                            "code": "Smoking",
                            "display": "吸菸行為"
                        }
                    ]
                },
                "subject": {
                    "reference": "Patient/0ed46368-db5d-4419-9d26-c51524842018"
                },
                "encounter": {
                    "reference": "Encounter/1344ed69-ceb5-4cd4-82b9-a4763eafa10e"
                },
                "component": [
                    {
                        "code": {
                            "coding": [
                                {
                                    "system": "https://hapi.fhir.tw/fhir/CodeSystem/twcr-sf-smoking-behavior-codesystem",
                                    "code": "amount",
                                    "display": "每日吸菸量，以”支”計算"
                                }
                            ]
                        },
                        "valueCodeableConcept": {
                            "coding": [
                                {
                                    "system": "https://hapi.fhir.tw/fhir/CodeSystem/twcr-sf-smoking-amount-codesystem",
                                    "code": "99",
                                    "display": "病歷未記載或吸菸狀態完全不詳者"
                                }
                            ]
                        }
                    },
                    {
                        "code": {
                            "coding": [
                                {
                                    "system": "https://hapi.fhir.tw/fhir/CodeSystem/twcr-sf-smoking-behavior-codesystem",
                                    "code": "year",
                                    "display": "吸菸年"
                                }
                            ]
                        },
                        "valueCodeableConcept": {
                            "coding": [
                                {
                                    "system": "https://hapi.fhir.tw/fhir/CodeSystem/twcr-sf-smoking-year-codesystem",
                                    "code": "99",
                                    "display": "病歷未記載或吸菸狀態完全不詳者"
                                }
                            ]
                        }
                    },
                    {
                        "code": {
                            "coding": [
                                {
                                    "system": "https://hapi.fhir.tw/fhir/CodeSystem/twcr-sf-smoking-behavior-codesystem",
                                    "code": "quit",
                                    "display": "戒菸年"
                                }
                            ]
                        },
                        "valueCodeableConcept": {
                            "coding": [
                                {
                                    "system": "https://hapi.fhir.tw/fhir/CodeSystem/twcr-sf-smoking-quit-codesystem",
                                    "code": "99",
                                    "display": "病歷未記載或戒菸狀態完全不詳者"
                                }
                            ]
                        }
                    }
                ]
            }
        },
        {
            "fullUrl": "http://152.38.3.250:8080/fhir/Procedure/479fee15-3e9c-41c5-bbef-ea54358bc402",
            "resource": {
                "resourceType": "Procedure",
                "id": "479fee15-3e9c-41c5-bbef-ea54358bc402",
                "meta": {
                    "versionId": "1",
                    "lastUpdated": "2023-09-29T05:23:59.683+00:00",
                    "source": "#uQQvXrwfZrNA0ONg",
                    "profile": [
                        "https://hapi.fhir.tw/fhir/StructureDefinition/twcr-sf-surgical-procedure-of-primary-site-profile"
                    ]
                },
                "text": {
                    "status": "empty",
                    "div": "<div xmlns=\"http://www.w3.org/1999/xhtml\">目前為空值，可根據使用需求自行產生這筆資料的摘要資訊並填入此欄位</div>"
                },
                "status": "completed",
                "category": {
                    "coding": [
                        {
                            "system": "https://hapi.fhir.tw/fhir/CodeSystem/twcr-sf-procedure-code-codesystem",
                            "code": "SurgicalProcedureOfPrimarySite",
                            "display": "申報醫院原發部位手術方式"
                        }
                    ]
                },
                "code": {
                    "coding": [
                        {
                            "system": "https://hapi.fhir.tw/fhir/CodeSystem/twcr-sf-surgical-procedure-of-primary-site-codesystem",
                            "code": "00",
                            "display": "未進行原發部位切除手術"
                        }
                    ]
                },
                "subject": {
                    "reference": "Patient/0ed46368-db5d-4419-9d26-c51524842018"
                }
            }
        },
        {
            "fullUrl": "http://152.38.3.250:8080/fhir/Procedure/a1ee2a35-a77b-442e-b307-9e730aefd408",
            "resource": {
                "resourceType": "Procedure",
                "id": "a1ee2a35-a77b-442e-b307-9e730aefd408",
                "meta": {
                    "versionId": "1",
                    "lastUpdated": "2023-09-29T05:23:59.738+00:00",
                    "source": "#yRwEjnVFLYR4Vhbf",
                    "profile": [
                        "https://hapi.fhir.tw/fhir/StructureDefinition/twcr-sf-targeted-therapy-profile"
                    ]
                },
                "text": {
                    "status": "empty",
                    "div": "<div xmlns=\"http://www.w3.org/1999/xhtml\">目前為空值，可根據使用需求自行產生這筆資料的摘要資訊並填入此欄位</div>"
                },
                "status": "completed",
                "category": {
                    "coding": [
                        {
                            "system": "https://hapi.fhir.tw/fhir/CodeSystem/twcr-sf-procedure-code-codesystem",
                            "code": "TargetedTherapy",
                            "display": "申報醫院標靶治療"
                        }
                    ]
                },
                "code": {
                    "coding": [
                        {
                            "system": "https://hapi.fhir.tw/fhir/CodeSystem/twcr-sf-targeted-therapy-codesystem",
                            "code": "00",
                            "display": "(1)未接受標靶治療，標靶治療非首次療程的一部份 (2)由屍體解剖時才診斷為癌症"
                        }
                    ]
                },
                "subject": {
                    "reference": "Patient/0ed46368-db5d-4419-9d26-c51524842018"
                },
                "encounter": {
                    "reference": "Encounter/1344ed69-ceb5-4cd4-82b9-a4763eafa10e"
                },
                "performedPeriod": {
                    "start": "2002-11-11"
                }
            }
        },
        {
            "fullUrl": "http://152.38.3.250:8080/fhir/Observation/5e137777-831c-45f1-958a-b200aea2f81d",
            "resource": {
                "resourceType": "Observation",
                "id": "5e137777-831c-45f1-958a-b200aea2f81d",
                "meta": {
                    "versionId": "1",
                    "lastUpdated": "2023-09-29T05:23:59.796+00:00",
                    "source": "#80zsQMq2sCqRFucD",
                    "profile": [
                        "https://hapi.fhir.tw/fhir/StructureDefinition/twcr-sf-weight-profile"
                    ]
                },
                "text": {
                    "status": "empty",
                    "div": "<div xmlns=\"http://www.w3.org/1999/xhtml\">目前為空值，可根據使用需求自行產生這筆資料的摘要資訊並填入此欄位</div>"
                },
                "status": "registered",
                "code": {
                    "coding": [
                        {
                            "system": "https://loinc.org",
                            "code": "29463-7",
                            "display": "Body Weight"
                        }
                    ]
                },
                "subject": {
                    "reference": "Patient/0ed46368-db5d-4419-9d26-c51524842018"
                },
                "encounter": {
                    "reference": "Encounter/1344ed69-ceb5-4cd4-82b9-a4763eafa10e"
                },
                "valueCodeableConcept": {
                    "coding": [
                        {
                            "system": "https://hapi.fhir.tw/fhir/CodeSystem/twcr-sf-weight-codesystem",
                            "code": "999",
                            "display": "病歷未記載或不詳"
                        }
                    ]
                }
            }
        }
    ]
}