{
    "resourceType": "Bundle",
    "id": "f9a532b3-9481-4f2f-b6c5-074237137033",
    "identifier": {
        "system": "https://www.cdc.gov.tw/",
        "value": "TWCR-LF-2023-09-29T13:24:29+08:00"
    },
    "type": "document",
    "timestamp": "2023-09-29T13:24:29+08:00",
    "entry": [
        {
            "fullUrl": "http://152.38.3.250:8080/fhir/Composition/4f93ebd4-4c81-4d93-8461-a4ad272f0c66",
            "resource": {
                "resourceType": "Composition",
                "id": "4f93ebd4-4c81-4d93-8461-a4ad272f0c66",
                "meta": {
                    "profile": [
                        "https://hapi.fhir.tw/fhir/StructureDefinition/twcr-lf-composition-profile"
                    ]
                },
                "text": {
                    "status": "generated",
                    "div": "<div xmlns=\"http://www.w3.org/1999/xhtml\"><p><b>Generated Narrative: Composition</b><a name=\"CompositionExample\"> </a></p><div style=\"display: inline-block; background-color: #d9e0e7; padding: 6px; margin: 4px; border: 1px solid #8da1b4; border-radius: 5px; line-height: 60%\"><p style=\"margin-bottom: 0px\">Resource Composition &quot;CompositionExample&quot; </p><p style=\"margin-bottom: 0px\">Profile: <a href=\"StructureDefinition-twcr-sf-composition-profile.html\">Composition</a></p></div><p><b>status</b>: final</p><p><b>type</b>: Cancer event report <span style=\"background: LightGoldenRodYellow; margin: 4px; border: 1px solid khaki\"> (<a href=\"https://loinc.org/\">LOINC</a>#72134-0)</span></p><p><b>date</b>: 2022-07-12 14:30:00+0800</p><p><b>author</b>: </p><ul><li><a href=\"Organization-OrganizationExample.html\">Organization/OrganizationExample</a></li><li><a href=\"Practitioner-PractitionerExample.html\">Practitioner/PractitionerExample</a></li></ul><p><b>title</b>: 癌症登記短表</p></div>"
                },
                "status": "final",
                "type": {
                    "coding": [
                        {
                            "system": "https://loinc.org",
                            "code": "72134-0",
                            "display": "Cancer event report"
                        }
                    ]
                },
                "subject": {
                    "reference": "Patient/5a621405-06ca-4b2f-84a8-6b6149c8631a"
                },
                "date": "2023-09-29T13:24:29+08:00",
                "author": [
                    {
                        "reference": "Organization/13f4ac26-86a0-4177-bc72-d5db4ddad440"
                    },
                    {
                        "reference": "Practitioner/c6c8fcf7-ed19-45bd-a9ad-f68353f20398"
                    }
                ],
                "title": "癌症登記長表",
                "section": [
                    {
                        "title": "癌症確認section",
                        "code": {
                            "coding": [
                                {
                                    "system": "https://snomed.info/sct",
                                    "code": "395099008",
                                    "display": "Cancer confirmed (situation)"
                                }
                            ]
                        },
                        "entry": [
                            {
                                "reference": "Encounter/84a6117f-f30f-461e-97a4-2c643d207c24"
                            },
                            {
                                "reference": "Condition/c994a08a-ce08-4975-9c85-6bc362b825bf"
                            },
                            {
                                "reference": "Condition/fefcd0f4-5ad6-4c98-8e77-b0254183bb4b"
                            },
                            {
                                "reference": "Condition/1fe89e1a-c96c-4517-8db5-6d397fd5ea53"
                            },
                            {
                                "reference": "Condition/f0df08a5-f23b-46a7-966a-46438223eb2f"
                            },
                            {
                                "reference": "Observation/441626df-2257-44a1-ab6a-93c93cf9c92e"
                            },
                            {
                                "reference": "Observation/0a479ac0-5400-4a69-8990-431d3ef80a95"
                            },
                            {
                                "reference": "Observation/2cb0360f-28a8-418f-bf25-5a81796c21fd"
                            },
                            {
                                "reference": "Observation/b56f656f-1bc3-48dd-8804-3d6e481d7838"
                            },
                            {
                                "reference": "Observation/33387bef-ee8f-4c22-9918-abec6954d8c0"
                            },
                            {
                                "reference": "Observation/880ac499-b442-44cd-80fa-3c1ca7b571a8"
                            },
                            {
                                "reference": "Observation/10f11a74-d5a3-46f9-9b5f-0a417bbcd596"
                            }
                        ]
                    },
                    {
                        "title": "癌症最初診斷期別section",
                        "code": {
                            "coding": [
                                {
                                    "system": "https://hapi.fhir.tw/fhir/CodeSystem/twcr-lf-logical-model-codesystem",
                                    "code": "StageOfInitialDiagnosisOfCancer",
                                    "display": "癌症最初診斷期別"
                                }
                            ]
                        },
                        "entry": [
                            {
                                "reference": "Procedure/025f2275-ad9e-4c24-b375-3e98539c1120"
                            },
                            {
                                "reference": "Procedure/b1a711a9-0441-420b-a3c2-5e042b1d3392"
                            },
                            {
                                "reference": "Observation/8a31a13a-fcb7-4a01-b6a4-ab54f5ee8a7d"
                            },
                            {
                                "reference": "Observation/f83c81ff-9653-4c28-90c6-fc9f4c34edcb"
                            },
                            {
                                "reference": "Observation/73bdde83-4798-4b4a-bdc6-2a2fe38f4e87"
                            },
                            {
                                "reference": "Observation/d176a027-b72f-442c-b878-138d7b34672f"
                            },
                            {
                                "reference": "Observation/2fbc9b2c-e974-4290-b03c-7315b691d9e6"
                            },
                            {
                                "reference": "Observation/18392aa2-83bc-40b5-9d6c-0d3ace3b85dd"
                            },
                            {
                                "reference": "Observation/259276ef-944e-41b8-9c1f-edc1be9b44be"
                            },
                            {
                                "reference": "Observation/b290b9da-ad76-4f4b-bdae-4d60d87dd8f1"
                            },
                            {
                                "reference": "Observation/67e25ac7-79cb-4a9d-b64d-6b5e7356045b"
                            },
                            {
                                "reference": "Observation/eae43dc3-ec3b-4125-8e9a-665b66581bf3"
                            },
                            {
                                "reference": "Observation/8bab53e4-d238-4c98-8727-ad7214ab0f02"
                            },
                            {
                                "reference": "Observation/f3719865-76bf-4def-abc0-65e6b1c56d98"
                            }
                        ]
                    },
                    {
                        "title": "首次療程section",
                        "code": {
                            "coding": [
                                {
                                    "system": "https://snomed.info/sct",
                                    "code": "708255002",
                                    "display": "First line treatment (procedure)"
                                }
                            ]
                        },
                        "entry": [
                            {
                                "reference": "Procedure/5bab22fb-f535-43e3-ad02-59a0028219bd"
                            },
                            {
                                "reference": "Procedure/f557908e-c923-4cc5-b669-48544354472f"
                            },
                            {
                                "reference": "Procedure/cd0cb3b8-948c-4439-8c3b-9cd4bf122dc3"
                            },
                            {
                                "reference": "Procedure/6a53fa7e-e56f-4fa7-892b-28147aadd042"
                            },
                            {
                                "reference": "Procedure/03e73330-1775-4765-a357-e841474e4805"
                            },
                            {
                                "reference": "Observation/753561f9-8c30-4b42-a324-4acd73ae3903"
                            },
                            {
                                "reference": "Observation/b52451a7-d9cd-439e-9581-ae1ca46736cb"
                            },
                            {
                                "reference": "Procedure/392fbb26-25bf-4504-b245-9cc69b464ede"
                            },
                            {
                                "reference": "Procedure/8995e420-7d45-4a34-9cd1-60f782914314"
                            },
                            {
                                "reference": "Procedure/bf010573-efbb-4862-8dd0-cf428c3435af"
                            },
                            {
                                "reference": "Procedure/d9af2f3e-b37d-471d-b9f7-4e060a46ca81"
                            },
                            {
                                "reference": "Procedure/cf42bc4b-f60e-49ad-a68f-89214508dab8"
                            },
                            {
                                "reference": "Procedure/6c8a9393-0499-4400-9ae9-94fca5490960"
                            },
                            {
                                "reference": "Procedure/b386894d-4fa7-4657-9267-5040d6c739e1"
                            },
                            {
                                "reference": "Procedure/58625198-dbc4-4fc7-a9e4-15164102c5b8"
                            },
                            {
                                "reference": "Procedure/5677c1e4-4fed-43ff-b2e7-3535957ac1b8"
                            },
                            {
                                "reference": "Procedure/c5382685-fef1-48b2-bfec-505bd84f8d5e"
                            },
                            {
                                "reference": "Procedure/7100af60-7314-4ee5-b06b-bb9f705fb4fa"
                            },
                            {
                                "reference": "Procedure/9795d7c6-7643-40eb-991f-bfede1bde5e5"
                            },
                            {
                                "reference": "Procedure/caa85b52-a5b8-43d3-a437-f843f2f2b632"
                            },
                            {
                                "reference": "Procedure/359b8d57-06a6-4e5b-89b1-bf38ec7963ea"
                            },
                            {
                                "reference": "Procedure/bd23faec-5495-41cb-bf0c-a4560039c9da"
                            },
                            {
                                "reference": "Procedure/0cc2121d-687f-4a42-96a9-ede521c5b8d5"
                            },
                            {
                                "reference": "Procedure/c0f4a170-88c7-49f8-9baa-1d93022fbec5"
                            },
                            {
                                "reference": "Procedure/b4cde92e-6689-4297-8053-eb6c6373f790"
                            },
                            {
                                "reference": "Procedure/5064f623-7599-4bb3-965f-f857442815ce"
                            },
                            {
                                "reference": "Procedure/e2ebda75-6aff-426e-9e7e-66cf1e61843f"
                            },
                            {
                                "reference": "Procedure/360bbfa1-133c-48e5-91cb-97a1ab1c45b2"
                            },
                            {
                                "reference": "Procedure/d5a439d0-c989-4b46-b601-698e6f39dd5b"
                            }
                        ]
                    },
                    {
                        "title": "其他因子section",
                        "code": {
                            "coding": [
                                {
                                    "system": "https://hapi.fhir.tw/fhir/CodeSystem/twcr-lf-logical-model-codesystem",
                                    "code": "OtherFactors",
                                    "display": "其他因子"
                                }
                            ]
                        },
                        "entry": [
                            {
                                "reference": "Observation/575251a8-9c5c-436c-aa14-bea61ae5250a"
                            },
                            {
                                "reference": "Observation/08748276-a839-4512-a79d-8f203b520c88"
                            },
                            {
                                "reference": "Observation/f69bcbec-a69f-4c84-962f-863b391a3627"
                            },
                            {
                                "reference": "Observation/4780fd79-3a4f-40f8-9583-9de540d9f875"
                            },
                            {
                                "reference": "Observation/e0c821e7-0e1a-4639-b959-b4ba81706ca0"
                            },
                            {
                                "reference": "Condition/5afc7ed6-5067-4e3f-a69b-5ebdaf3bf2c4"
                            }
                        ]
                    },
                    {
                        "title": "結果section",
                        "code": {
                            "coding": [
                                {
                                    "system": "https://loinc.org",
                                    "code": "21976-6",
                                    "display": "Cancer outcome status"
                                }
                            ]
                        },
                        "entry": [
                            {
                                "reference": "Observation/3671ac08-fe9a-4ecc-be74-bf38e1bc3788"
                            }
                        ]
                    },
                    {
                        "title": "癌症部位特定因子section",
                        "code": {
                            "coding": [
                                {
                                    "system": "https://hapi.fhir.tw/fhir/CodeSystem/twcr-lf-logical-model-codesystem",
                                    "code": "SSF",
                                    "display": "癌症部位特定因子"
                                }
                            ]
                        },
                        "entry": [
                            {
                                "reference": "Observation/96ba267b-3e77-451c-aefa-3da7e4e59ed8"
                            },
                            {
                                "reference": "Observation/047ce733-efad-4df4-b00e-500aede0db4f"
                            },
                            {
                                "reference": "Observation/c25fce88-11c2-4be2-933c-b2f8a8d59a24"
                            },
                            {
                                "reference": "Observation/e2fb75a4-11b1-42ed-aa60-d29997a733d9"
                            },
                            {
                                "reference": "Observation/630f31f4-318b-4cb0-98ca-25f7d0eda01a"
                            },
                            {
                                "reference": "Observation/08703111-d2bf-4de6-adfb-60cdefa99b89"
                            },
                            {
                                "reference": "Observation/c60d43cf-3d37-49a2-b23d-f6ef3be56e85"
                            },
                            {
                                "reference": "Observation/f1c65b37-f182-4ef6-a025-18f02a4bb360"
                            },
                            {
                                "reference": "Observation/4a7b340a-82bb-4fe2-bbbf-9e735fe71583"
                            },
                            {
                                "reference": "Observation/66228807-7e9b-48d6-9bc1-656137902ec3"
                            }
                        ]
                    }
                ]
            }
        },
        {
            "fullUrl": "http://152.38.3.250:8080/fhir/Organization/13f4ac26-86a0-4177-bc72-d5db4ddad440",
            "resource": {
                "resourceType": "Organization",
                "id": "13f4ac26-86a0-4177-bc72-d5db4ddad440",
                "meta": {
                    "versionId": "1",
                    "lastUpdated": "2023-09-29T04:33:53.949+00:00",
                    "profile": [
                        "https://hapi.fhir.tw/fhir/StructureDefinition/twcr-sf-organization-profile"
                    ]
                },
                "text": {
                    "status": "empty",
                    "div": "<div xmlns=\"http://www.w3.org/1999/xhtml\">目前為空值，可根據使用需求自行產生這筆資料的摘要資訊並填入此欄位</div>"
                },
                "identifier": [
                    {
                        "value": "0000016"
                    }
                ]
            }
        },
        {
            "fullUrl": "http://152.38.3.250:8080/fhir/Patient/5a621405-06ca-4b2f-84a8-6b6149c8631a",
            "resource": {
                "resourceType": "Patient",
                "id": "5a621405-06ca-4b2f-84a8-6b6149c8631a",
                "meta": {
                    "versionId": "1",
                    "lastUpdated": "2023-09-29T04:34:06.352+00:00",
                    "profile": [
                        "https://hapi.fhir.tw/fhir/StructureDefinition/twcr-lf-patient-profile"
                    ]
                },
                "text": {
                    "status": "empty",
                    "div": "<div xmlns=\"http://www.w3.org/1999/xhtml\">目前為空值，可根據使用需求自行產生這筆資料的摘要資訊並填入此欄位</div>"
                },
                "extension": [
                    {
                        "url": "https://hapi.fhir.tw/fhir/StructureDefinition/twcr-lf-last-contact-or-death-extension",
                        "valueDateTime": "2022-08-14"
                    }
                ],
                "identifier": [
                    {
                        "type": {
                            "coding": [
                                {
                                    "system": "http://terminology.hl7.org/CodeSystem/v2-0203",
                                    "code": "NNxxx",
                                    "display": "National Person Identifier where the xxx is the ISO table 3166 3-character (alphabetic) country code"
                                }
                            ]
                        },
                        "system": "http://www.moi.gov.tw",
                        "value": "F130000002"
                    },
                    {
                        "type": {
                            "coding": [
                                {
                                    "system": "http://terminology.hl7.org/CodeSystem/v2-0203",
                                    "code": "MR",
                                    "display": "Medical record number"
                                }
                            ]
                        },
                        "system": "https://www.vghtpe.gov.tw/Index.action",
                        "value": "A01112"
                    }
                ],
                "name": [
                    {
                        "text": "許○○"
                    }
                ],
                "gender": "female",
                "birthDate": "1956-11-20",
                "deceasedBoolean": true,
                "address": [
                    {
                        "postalCode": "3128"
                    }
                ],
                "managingOrganization": {
                    "reference": "Organization/13f4ac26-86a0-4177-bc72-d5db4ddad440"
                }
            }
        },
        {
            "fullUrl": "http://152.38.3.250:8080/fhir/Practitioner/c6c8fcf7-ed19-45bd-a9ad-f68353f20398",
            "resource": {
                "resourceType": "Practitioner",
                "id": "c6c8fcf7-ed19-45bd-a9ad-f68353f20398",
                "meta": {
                    "versionId": "1",
                    "lastUpdated": "2023-09-29T04:34:06.413+00:00",
                    "profile": [
                        "https://hapi.fhir.tw/fhir/StructureDefinition/twcr-lf-practitioner-profile"
                    ]
                },
                "text": {
                    "status": "empty",
                    "div": "<div xmlns=\"http://www.w3.org/1999/xhtml\">目前為空值，可根據使用需求自行產生這筆資料的摘要資訊並填入此欄位</div>"
                },
                "identifier": [
                    {
                        "system": "http://www.moi.gov.tw",
                        "value": "099A0059"
                    }
                ]
            }
        },
        {
            "fullUrl": "http://152.38.3.250:8080/fhir/Encounter/84a6117f-f30f-461e-97a4-2c643d207c24",
            "resource": {
                "resourceType": "Encounter",
                "id": "84a6117f-f30f-461e-97a4-2c643d207c24",
                "meta": {
                    "versionId": "1",
                    "lastUpdated": "2023-09-29T04:34:06.518+00:00",
                    "profile": [
                        "https://hapi.fhir.tw/fhir/StructureDefinition/twcr-lf-encounter-profile"
                    ]
                },
                "text": {
                    "status": "empty",
                    "div": "<div xmlns=\"http://www.w3.org/1999/xhtml\">目前為空值，可根據使用需求自行產生這筆資料的摘要資訊並填入此欄位</div>"
                },
                "status": "finished",
                "class": {
                    "system": "http://terminology.hl7.org/CodeSystem/v3-ActCode",
                    "code": "AMB",
                    "display": "ambulatory"
                },
                "subject": {
                    "reference": "Patient/5a621405-06ca-4b2f-84a8-6b6149c8631a"
                },
                "period": {
                    "start": "2017-06-22"
                }
            }
        },
        {
            "fullUrl": "http://152.38.3.250:8080/fhir/Condition/c994a08a-ce08-4975-9c85-6bc362b825bf",
            "resource": {
                "resourceType": "Condition",
                "id": "c994a08a-ce08-4975-9c85-6bc362b825bf",
                "meta": {
                    "versionId": "1",
                    "lastUpdated": "2023-09-29T04:34:06.639+00:00",
                    "profile": [
                        "https://hapi.fhir.tw/fhir/StructureDefinition/twcr-lf-condition-profile"
                    ]
                },
                "text": {
                    "status": "empty",
                    "div": "<div xmlns=\"http://www.w3.org/1999/xhtml\">目前為空值，可根據使用需求自行產生這筆資料的摘要資訊並填入此欄位</div>"
                },
                "category": [
                    {
                        "coding": [
                            {
                                "system": "https://hapi.fhir.tw/fhir/CodeSystem/twcr-lf-class-of-case-codesystem",
                                "code": "0",
                                "display": "申報醫院診斷，但未於申報醫院接受首次療程"
                            }
                        ]
                    },
                    {
                        "coding": [
                            {
                                "system": "https://hapi.fhir.tw/fhir/CodeSystem/twcr-lf-class-of-diangosis-status-codesystem",
                                "code": "1",
                                "display": "於申報醫院診斷"
                            }
                        ]
                    },
                    {
                        "coding": [
                            {
                                "system": "https://hapi.fhir.tw/fhir/CodeSystem/twcr-lf-class-of-treatment-status-codesystem",
                                "code": "0",
                                "display": "未於申報醫院接受任何治療即死亡：(1)申報醫院診斷後死亡或病危出院 (2)他院診斷，轉診至申報醫院後死亡"
                            }
                        ]
                    }
                ],
                "code": {
                    "coding": [
                        {
                            "system": "https://hapi.fhir.tw/fhir/CodeSystem/twcr-lf-sequence-number-codesystem",
                            "code": "01",
                            "display": "個案一生中第 1 個惡性腫瘤或原位癌"
                        }
                    ]
                },
                "subject": {
                    "reference": "Patient/5a621405-06ca-4b2f-84a8-6b6149c8631a"
                },
                "encounter": {
                    "reference": "Encounter/84a6117f-f30f-461e-97a4-2c643d207c24"
                },
                "onsetAge": {
                    "value": 60,
                    "system": "http://unitsofmeasure.org",
                    "code": "a"
                },
                "recorder": {
                    "reference": "Practitioner/c6c8fcf7-ed19-45bd-a9ad-f68353f20398"
                },
                "evidence": [
                    {
                        "code": [
                            {
                                "coding": [
                                    {
                                        "system": "https://hapi.fhir.tw/fhir/CodeSystem/twcr-lf-diagnostic-confirmation-codesystem",
                                        "code": "7",
                                        "display": "放射線或其他影像學檢查診斷為癌症，但未經顯微鏡檢證實"
                                    }
                                ]
                            }
                        ]
                    }
                ]
            }
        },
        {
            "fullUrl": "http://152.38.3.250:8080/fhir/Observation/8a31a13a-fcb7-4a01-b6a4-ab54f5ee8a7d",
            "resource": {
                "resourceType": "Observation",
                "id": "8a31a13a-fcb7-4a01-b6a4-ab54f5ee8a7d",
                "meta": {
                    "versionId": "1",
                    "lastUpdated": "2023-09-29T04:34:06.722+00:00",
                    "profile": [
                        "https://hapi.fhir.tw/fhir/StructureDefinition/twcr-lf-clinical-t-profile"
                    ]
                },
                "text": {
                    "status": "empty",
                    "div": "<div xmlns=\"http://www.w3.org/1999/xhtml\">目前為空值，可根據使用需求自行產生這筆資料的摘要資訊並填入此欄位</div>"
                },
                "status": "registered",
                "code": {
                    "coding": [
                        {
                            "system": "https://loinc.org",
                            "code": "21905-5",
                            "display": "Primary tumor.clinical [Class] Cancer"
                        }
                    ]
                },
                "subject": {
                    "reference": "Patient/5a621405-06ca-4b2f-84a8-6b6149c8631a"
                },
                "encounter": {
                    "reference": "Encounter/84a6117f-f30f-461e-97a4-2c643d207c24"
                },
                "valueCodeableConcept": {
                    "coding": [
                        {
                            "system": "https://hapi.fhir.tw/fhir/CodeSystem/twcr-lf-clinical-t-codesystem",
                            "code": "1B",
                            "display": "T1b"
                        }
                    ]
                },
                "method": {
                    "coding": [
                        {
                            "system": "https://hapi.fhir.tw/fhir/CodeSystem/twcr-lf-edition-and-chapter-of-AJCC-cancer-staging-codesystem",
                            "code": "08006",
                            "display": "第八版第 6 章"
                        }
                    ],
                    "text": "第八版第 6 章"
                }
            }
        },
        {
            "fullUrl": "http://152.38.3.250:8080/fhir/Observation/f83c81ff-9653-4c28-90c6-fc9f4c34edcb",
            "resource": {
                "resourceType": "Observation",
                "id": "f83c81ff-9653-4c28-90c6-fc9f4c34edcb",
                "meta": {
                    "versionId": "1",
                    "lastUpdated": "2023-09-29T04:34:06.797+00:00",
                    "profile": [
                        "https://hapi.fhir.tw/fhir/StructureDefinition/twcr-lf-clinical-n-profile"
                    ]
                },
                "text": {
                    "status": "empty",
                    "div": "<div xmlns=\"http://www.w3.org/1999/xhtml\">目前為空值，可根據使用需求自行產生這筆資料的摘要資訊並填入此欄位</div>"
                },
                "status": "registered",
                "code": {
                    "coding": [
                        {
                            "system": "https://loinc.org",
                            "code": "21906-3",
                            "display": "Regional lymph nodes.clinical [Class] Cancer"
                        }
                    ]
                },
                "subject": {
                    "reference": "Patient/5a621405-06ca-4b2f-84a8-6b6149c8631a"
                },
                "encounter": {
                    "reference": "Encounter/84a6117f-f30f-461e-97a4-2c643d207c24"
                },
                "valueCodeableConcept": {
                    "coding": [
                        {
                            "system": "https://hapi.fhir.tw/fhir/CodeSystem/twcr-lf-clinical-n-codesystem",
                            "code": "0",
                            "display": "N0"
                        }
                    ]
                },
                "method": {
                    "coding": [
                        {
                            "system": "https://hapi.fhir.tw/fhir/CodeSystem/twcr-lf-edition-and-chapter-of-AJCC-cancer-staging-codesystem",
                            "code": "08006",
                            "display": "第八版第 6 章"
                        }
                    ],
                    "text": "第八版第 6 章"
                }
            }
        },
        {
            "fullUrl": "http://152.38.3.250:8080/fhir/Observation/73bdde83-4798-4b4a-bdc6-2a2fe38f4e87",
            "resource": {
                "resourceType": "Observation",
                "id": "73bdde83-4798-4b4a-bdc6-2a2fe38f4e87",
                "meta": {
                    "versionId": "1",
                    "lastUpdated": "2023-09-29T04:34:06.856+00:00",
                    "profile": [
                        "https://hapi.fhir.tw/fhir/StructureDefinition/twcr-lf-clinical-m-profile"
                    ]
                },
                "text": {
                    "status": "empty",
                    "div": "<div xmlns=\"http://www.w3.org/1999/xhtml\">目前為空值，可根據使用需求自行產生這筆資料的摘要資訊並填入此欄位</div>"
                },
                "status": "registered",
                "code": {
                    "coding": [
                        {
                            "system": "https://loinc.org",
                            "code": "21907-1",
                            "display": "Distant metastases.clinical [Class] Cancer"
                        }
                    ]
                },
                "subject": {
                    "reference": "Patient/5a621405-06ca-4b2f-84a8-6b6149c8631a"
                },
                "encounter": {
                    "reference": "Encounter/84a6117f-f30f-461e-97a4-2c643d207c24"
                },
                "valueCodeableConcept": {
                    "coding": [
                        {
                            "system": "https://hapi.fhir.tw/fhir/CodeSystem/twcr-lf-clinical-m-codesystem",
                            "code": "0",
                            "display": "M0"
                        }
                    ]
                },
                "method": {
                    "coding": [
                        {
                            "system": "https://hapi.fhir.tw/fhir/CodeSystem/twcr-lf-edition-and-chapter-of-AJCC-cancer-staging-codesystem",
                            "code": "08006",
                            "display": "第八版第 6 章"
                        }
                    ],
                    "text": "第八版第 6 章"
                }
            }
        },
        {
            "fullUrl": "http://152.38.3.250:8080/fhir/Observation/259276ef-944e-41b8-9c1f-edc1be9b44be",
            "resource": {
                "resourceType": "Observation",
                "id": "259276ef-944e-41b8-9c1f-edc1be9b44be",
                "meta": {
                    "versionId": "1",
                    "lastUpdated": "2023-09-29T04:34:06.939+00:00",
                    "profile": [
                        "https://hapi.fhir.tw/fhir/StructureDefinition/twcr-lf-pathologic-t-profile"
                    ]
                },
                "text": {
                    "status": "empty",
                    "div": "<div xmlns=\"http://www.w3.org/1999/xhtml\">目前為空值，可根據使用需求自行產生這筆資料的摘要資訊並填入此欄位</div>"
                },
                "status": "registered",
                "code": {
                    "coding": [
                        {
                            "system": "https://loinc.org",
                            "code": "21899-0",
                            "display": "Primary tumor.pathology Cancer"
                        }
                    ]
                },
                "subject": {
                    "reference": "Patient/5a621405-06ca-4b2f-84a8-6b6149c8631a"
                },
                "encounter": {
                    "reference": "Encounter/84a6117f-f30f-461e-97a4-2c643d207c24"
                },
                "valueCodeableConcept": {
                    "coding": [
                        {
                            "system": "https://hapi.fhir.tw/fhir/CodeSystem/twcr-lf-pathologic-t-codesystem",
                            "code": "X",
                            "display": "TX"
                        }
                    ]
                },
                "method": {
                    "coding": [
                        {
                            "system": "https://hapi.fhir.tw/fhir/CodeSystem/twcr-lf-edition-and-chapter-of-AJCC-cancer-staging-codesystem",
                            "code": "08006",
                            "display": "第八版第 6 章"
                        }
                    ],
                    "text": "第八版第 6 章"
                }
            }
        },
        {
            "fullUrl": "http://152.38.3.250:8080/fhir/Observation/b290b9da-ad76-4f4b-bdae-4d60d87dd8f1",
            "resource": {
                "resourceType": "Observation",
                "id": "b290b9da-ad76-4f4b-bdae-4d60d87dd8f1",
                "meta": {
                    "versionId": "1",
                    "lastUpdated": "2023-09-29T04:34:07.003+00:00",
                    "profile": [
                        "https://hapi.fhir.tw/fhir/StructureDefinition/twcr-lf-pathologic-n-profile"
                    ]
                },
                "text": {
                    "status": "empty",
                    "div": "<div xmlns=\"http://www.w3.org/1999/xhtml\">目前為空值，可根據使用需求自行產生這筆資料的摘要資訊並填入此欄位</div>"
                },
                "status": "registered",
                "code": {
                    "coding": [
                        {
                            "system": "https://loinc.org",
                            "code": "21900-6",
                            "display": "Regional lymph nodes.pathology [Class] Cancer"
                        }
                    ]
                },
                "subject": {
                    "reference": "Patient/5a621405-06ca-4b2f-84a8-6b6149c8631a"
                },
                "encounter": {
                    "reference": "Encounter/84a6117f-f30f-461e-97a4-2c643d207c24"
                },
                "valueCodeableConcept": {
                    "coding": [
                        {
                            "system": "https://hapi.fhir.tw/fhir/CodeSystem/twcr-lf-pathologic-n-codesystem",
                            "code": "X",
                            "display": "NX"
                        }
                    ]
                },
                "method": {
                    "coding": [
                        {
                            "system": "https://hapi.fhir.tw/fhir/CodeSystem/twcr-lf-edition-and-chapter-of-AJCC-cancer-staging-codesystem",
                            "code": "08006",
                            "display": "第八版第 6 章"
                        }
                    ],
                    "text": "第八版第 6 章"
                }
            }
        },
        {
            "fullUrl": "http://152.38.3.250:8080/fhir/Observation/67e25ac7-79cb-4a9d-b64d-6b5e7356045b",
            "resource": {
                "resourceType": "Observation",
                "id": "67e25ac7-79cb-4a9d-b64d-6b5e7356045b",
                "meta": {
                    "versionId": "1",
                    "lastUpdated": "2023-09-29T04:34:07.074+00:00",
                    "profile": [
                        "https://hapi.fhir.tw/fhir/StructureDefinition/twcr-lf-pathologic-m-profile"
                    ]
                },
                "text": {
                    "status": "empty",
                    "div": "<div xmlns=\"http://www.w3.org/1999/xhtml\">目前為空值，可根據使用需求自行產生這筆資料的摘要資訊並填入此欄位</div>"
                },
                "status": "registered",
                "code": {
                    "coding": [
                        {
                            "system": "https://loinc.org",
                            "code": "21901-4",
                            "display": "Distant metastases.pathology [Class] Cancer"
                        }
                    ]
                },
                "subject": {
                    "reference": "Patient/5a621405-06ca-4b2f-84a8-6b6149c8631a"
                },
                "encounter": {
                    "reference": "Encounter/84a6117f-f30f-461e-97a4-2c643d207c24"
                },
                "valueCodeableConcept": {
                    "coding": [
                        {
                            "system": "https://hapi.fhir.tw/fhir/CodeSystem/twcr-lf-pathologic-m-codesystem",
                            "code": "B",
                            "display": "pM 不可編碼 X 或 0，應編為 B"
                        }
                    ]
                },
                "method": {
                    "coding": [
                        {
                            "system": "https://hapi.fhir.tw/fhir/CodeSystem/twcr-lf-edition-and-chapter-of-AJCC-cancer-staging-codesystem",
                            "code": "08006",
                            "display": "第八版第 6 章"
                        }
                    ],
                    "text": "第八版第 6 章"
                }
            }
        },
        {
            "fullUrl": "http://152.38.3.250:8080/fhir/Condition/5afc7ed6-5067-4e3f-a69b-5ebdaf3bf2c4",
            "resource": {
                "resourceType": "Condition",
                "id": "5afc7ed6-5067-4e3f-a69b-5ebdaf3bf2c4",
                "meta": {
                    "versionId": "1",
                    "lastUpdated": "2023-09-29T04:34:07.137+00:00",
                    "profile": [
                        "https://hapi.fhir.tw/fhir/StructureDefinition/twcr-lf-assessment-of-performance-before-treatment-profile"
                    ]
                },
                "text": {
                    "status": "empty",
                    "div": "<div xmlns=\"http://www.w3.org/1999/xhtml\">目前為空值，可根據使用需求自行產生這筆資料的摘要資訊並填入此欄位</div>"
                },
                "code": {
                    "coding": [
                        {
                            "system": "https://hapi.fhir.tw/fhir/CodeSystem/twcr-lf-assessment-of-performance-before-treatment-codesystem",
                            "code": "999",
                            "display": "病歷未記載或不詳"
                        }
                    ],
                    "text": "100"
                },
                "subject": {
                    "reference": "Patient/5a621405-06ca-4b2f-84a8-6b6149c8631a"
                },
                "encounter": {
                    "reference": "Encounter/84a6117f-f30f-461e-97a4-2c643d207c24"
                },
                "recorder": {
                    "reference": "Practitioner/c6c8fcf7-ed19-45bd-a9ad-f68353f20398"
                }
            }
        },
        {
            "fullUrl": "http://152.38.3.250:8080/fhir/Observation/4780fd79-3a4f-40f8-9583-9de540d9f875",
            "resource": {
                "resourceType": "Observation",
                "id": "4780fd79-3a4f-40f8-9583-9de540d9f875",
                "meta": {
                    "versionId": "1",
                    "lastUpdated": "2023-09-29T04:34:07.236+00:00",
                    "profile": [
                        "https://hapi.fhir.tw/fhir/StructureDefinition/twcr-lf-betel-nut-chewing-behavior-profile"
                    ]
                },
                "text": {
                    "status": "empty",
                    "div": "<div xmlns=\"http://www.w3.org/1999/xhtml\">目前為空值，可根據使用需求自行產生這筆資料的摘要資訊並填入此欄位</div>"
                },
                "status": "registered",
                "code": {
                    "coding": [
                        {
                            "system": "https://hapi.fhir.tw/fhir/CodeSystem/twcr-lf-observation-behavior-codesystem",
                            "code": "BetelNutChewing",
                            "display": "嚼檳榔行為"
                        }
                    ]
                },
                "subject": {
                    "reference": "Patient/5a621405-06ca-4b2f-84a8-6b6149c8631a"
                },
                "encounter": {
                    "reference": "Encounter/84a6117f-f30f-461e-97a4-2c643d207c24"
                },
                "component": [
                    {
                        "code": {
                            "coding": [
                                {
                                    "system": "https://hapi.fhir.tw/fhir/CodeSystem/twcr-lf-betel-nut-chewing-behavior-codesystem",
                                    "code": "amount",
                                    "display": "每日嚼檳榔量，以 ”顆” 計算"
                                }
                            ]
                        },
                        "valueCodeableConcept": {
                            "coding": [
                                {
                                    "system": "https://hapi.fhir.tw/fhir/CodeSystem/twcr-lf-betel-nut-chewing-amount-codesystem",
                                    "code": "99",
                                    "display": "病歷未記載或嚼檳榔狀態完全不詳者"
                                }
                            ]
                        }
                    },
                    {
                        "code": {
                            "coding": [
                                {
                                    "system": "https://hapi.fhir.tw/fhir/CodeSystem/twcr-lf-betel-nut-chewing-behavior-codesystem",
                                    "code": "year",
                                    "display": "嚼檳榔年"
                                }
                            ]
                        },
                        "valueCodeableConcept": {
                            "coding": [
                                {
                                    "system": "https://hapi.fhir.tw/fhir/CodeSystem/twcr-lf-betel-nut-chewing-year-codesystem",
                                    "code": "99",
                                    "display": "病歷未記載或嚼檳榔狀態完全不詳者"
                                }
                            ]
                        }
                    },
                    {
                        "code": {
                            "coding": [
                                {
                                    "system": "https://hapi.fhir.tw/fhir/CodeSystem/twcr-lf-betel-nut-chewing-behavior-codesystem",
                                    "code": "quit",
                                    "display": "戒嚼檳榔年"
                                }
                            ]
                        },
                        "valueCodeableConcept": {
                            "coding": [
                                {
                                    "system": "https://hapi.fhir.tw/fhir/CodeSystem/twcr-lf-betel-nut-chewing-quit-codesystem",
                                    "code": "99",
                                    "display": "病歷未記載或戒嚼檳榔狀態完全不詳者"
                                }
                            ]
                        }
                    }
                ]
            }
        },
        {
            "fullUrl": "http://152.38.3.250:8080/fhir/Procedure/9795d7c6-7643-40eb-991f-bfede1bde5e5",
            "resource": {
                "resourceType": "Procedure",
                "id": "9795d7c6-7643-40eb-991f-bfede1bde5e5",
                "meta": {
                    "versionId": "1",
                    "lastUpdated": "2023-09-29T04:34:07.322+00:00",
                    "profile": [
                        "https://hapi.fhir.tw/fhir/StructureDefinition/twcr-lf-chemotherapy-profile"
                    ]
                },
                "text": {
                    "status": "empty",
                    "div": "<div xmlns=\"http://www.w3.org/1999/xhtml\">目前為空值，可根據使用需求自行產生這筆資料的摘要資訊並填入此欄位</div>"
                },
                "status": "completed",
                "category": {
                    "coding": [
                        {
                            "system": "https://hapi.fhir.tw/fhir/CodeSystem/twcr-lf-procedure-code-codesystem",
                            "code": "Chemotherapy",
                            "display": "申報醫院化學治療"
                        }
                    ]
                },
                "code": {
                    "coding": [
                        {
                            "system": "https://hapi.fhir.tw/fhir/CodeSystem/twcr-lf-chemotherapy-codesystem",
                            "code": "01",
                            "display": "接受全身性化學治療"
                        }
                    ]
                },
                "subject": {
                    "reference": "Patient/5a621405-06ca-4b2f-84a8-6b6149c8631a"
                },
                "encounter": {
                    "reference": "Encounter/84a6117f-f30f-461e-97a4-2c643d207c24"
                },
                "performedPeriod": {
                    "start": "2002-11-11"
                }
            }
        },
        {
            "fullUrl": "http://152.38.3.250:8080/fhir/Procedure/caa85b52-a5b8-43d3-a437-f843f2f2b632",
            "resource": {
                "resourceType": "Procedure",
                "id": "caa85b52-a5b8-43d3-a437-f843f2f2b632",
                "meta": {
                    "versionId": "1",
                    "lastUpdated": "2023-09-29T04:34:07.399+00:00",
                    "profile": [
                        "https://hapi.fhir.tw/fhir/StructureDefinition/twcr-lf-chemotherapy-at-other-facility-profile"
                    ]
                },
                "text": {
                    "status": "empty",
                    "div": "<div xmlns=\"http://www.w3.org/1999/xhtml\">目前為空值，可根據使用需求自行產生這筆資料的摘要資訊並填入此欄位</div>"
                },
                "status": "completed",
                "category": {
                    "coding": [
                        {
                            "system": "https://hapi.fhir.tw/fhir/CodeSystem/twcr-lf-procedure-code-codesystem",
                            "code": "OtherFacilityChemotherapy",
                            "display": "外院化學治療"
                        }
                    ]
                },
                "code": {
                    "coding": [
                        {
                            "system": "https://hapi.fhir.tw/fhir/CodeSystem/twcr-lf-other-chemotherapy-codesystem",
                            "code": "00",
                            "display": "(1)未接受化學治療，化學治療非首次療程的一部份 (2)由屍體解剖時才診斷為癌症"
                        }
                    ]
                },
                "subject": {
                    "reference": "Patient/5a621405-06ca-4b2f-84a8-6b6149c8631a"
                },
                "encounter": {
                    "reference": "Encounter/84a6117f-f30f-461e-97a4-2c643d207c24"
                }
            }
        },
        {
            "fullUrl": "http://152.38.3.250:8080/fhir/Observation/d176a027-b72f-442c-b878-138d7b34672f",
            "resource": {
                "resourceType": "Observation",
                "id": "d176a027-b72f-442c-b878-138d7b34672f",
                "meta": {
                    "versionId": "1",
                    "lastUpdated": "2023-09-29T04:34:07.484+00:00",
                    "profile": [
                        "https://hapi.fhir.tw/fhir/StructureDefinition/twcr-lf-clinical-other-staging-profile"
                    ]
                },
                "text": {
                    "status": "empty",
                    "div": "<div xmlns=\"http://www.w3.org/1999/xhtml\">目前為空值，可根據使用需求自行產生這筆資料的摘要資訊並填入此欄位</div>"
                },
                "status": "registered",
                "code": {
                    "coding": [
                        {
                            "system": "https://loinc.org",
                            "code": "21908-9",
                            "display": "Stage group.clinical Cancer"
                        }
                    ]
                },
                "subject": {
                    "reference": "Patient/5a621405-06ca-4b2f-84a8-6b6149c8631a"
                },
                "encounter": {
                    "reference": "Encounter/84a6117f-f30f-461e-97a4-2c643d207c24"
                },
                "valueCodeableConcept": {
                    "coding": [
                        {
                            "system": "https://hapi.fhir.tw/fhir/CodeSystem/twcr-lf-clinical-other-staging-codesystem",
                            "code": "0000",
                            "display": "無使用其他分期系統"
                        }
                    ],
                    "text": "0000"
                },
                "method": {
                    "coding": [
                        {
                            "system": "https://hapi.fhir.tw/fhir/CodeSystem/twcr-lf-other-staging-system-codesystem",
                            "code": "00",
                            "display": "無其他分期系統"
                        }
                    ]
                }
            }
        },
        {
            "fullUrl": "http://152.38.3.250:8080/fhir/Observation/2fbc9b2c-e974-4290-b03c-7315b691d9e6",
            "resource": {
                "resourceType": "Observation",
                "id": "2fbc9b2c-e974-4290-b03c-7315b691d9e6",
                "meta": {
                    "versionId": "1",
                    "lastUpdated": "2023-09-29T04:34:07.558+00:00",
                    "profile": [
                        "https://hapi.fhir.tw/fhir/StructureDefinition/twcr-lf-clinical-stage-profile"
                    ]
                },
                "text": {
                    "status": "empty",
                    "div": "<div xmlns=\"http://www.w3.org/1999/xhtml\">目前為空值，可根據使用需求自行產生這筆資料的摘要資訊並填入此欄位</div>"
                },
                "status": "registered",
                "code": {
                    "coding": [
                        {
                            "system": "https://loinc.org",
                            "code": "21908-9",
                            "display": "Stage group.clinical Cancer"
                        }
                    ]
                },
                "subject": {
                    "reference": "Patient/5a621405-06ca-4b2f-84a8-6b6149c8631a"
                },
                "encounter": {
                    "reference": "Encounter/84a6117f-f30f-461e-97a4-2c643d207c24"
                },
                "valueCodeableConcept": {
                    "coding": [
                        {
                            "system": "https://hapi.fhir.tw/fhir/CodeSystem/twcr-lf-clinical-stage-group-codesystem",
                            "code": "1",
                            "display": "Stage I"
                        }
                    ]
                },
                "method": {
                    "coding": [
                        {
                            "system": "https://hapi.fhir.tw/fhir/CodeSystem/twcr-lf-edition-and-chapter-of-AJCC-cancer-staging-codesystem",
                            "code": "08006",
                            "display": "第八版第 6 章"
                        }
                    ],
                    "text": "第八版第 6 章"
                },
                "hasMember": [
                    {
                        "reference": "Observation/8a31a13a-fcb7-4a01-b6a4-ab54f5ee8a7d"
                    },
                    {
                        "reference": "Observation/f83c81ff-9653-4c28-90c6-fc9f4c34edcb"
                    },
                    {
                        "reference": "Observation/73bdde83-4798-4b4a-bdc6-2a2fe38f4e87"
                    }
                ]
            }
        },
        {
            "fullUrl": "http://152.38.3.250:8080/fhir/Observation/18392aa2-83bc-40b5-9d6c-0d3ace3b85dd",
            "resource": {
                "resourceType": "Observation",
                "id": "18392aa2-83bc-40b5-9d6c-0d3ace3b85dd",
                "meta": {
                    "versionId": "1",
                    "lastUpdated": "2023-09-29T04:34:07.630+00:00",
                    "profile": [
                        "https://hapi.fhir.tw/fhir/StructureDefinition/twcr-lf-clinical-stage-prefix-suffix-description-profile"
                    ]
                },
                "text": {
                    "status": "empty",
                    "div": "<div xmlns=\"http://www.w3.org/1999/xhtml\">目前為空值，可根據使用需求自行產生這筆資料的摘要資訊並填入此欄位</div>"
                },
                "status": "registered",
                "code": {
                    "coding": [
                        {
                            "system": "https://loinc.org",
                            "code": "21909-7",
                            "display": "Descriptor.clinical Cancer Narrative"
                        }
                    ]
                },
                "subject": {
                    "reference": "Patient/5a621405-06ca-4b2f-84a8-6b6149c8631a"
                },
                "encounter": {
                    "reference": "Encounter/84a6117f-f30f-461e-97a4-2c643d207c24"
                },
                "valueCodeableConcept": {
                    "coding": [
                        {
                            "system": "https://hapi.fhir.tw/fhir/CodeSystem/twcr-lf-clinical-stage-prefix-suffix-descriptor-codesystem",
                            "code": "0",
                            "display": "無"
                        }
                    ]
                },
                "method": {
                    "coding": [
                        {
                            "system": "https://hapi.fhir.tw/fhir/CodeSystem/twcr-lf-edition-and-chapter-of-AJCC-cancer-staging-codesystem",
                            "code": "08006",
                            "display": "第八版第 6 章"
                        }
                    ],
                    "text": "第八版第 6 章"
                }
            }
        },
        {
            "fullUrl": "http://152.38.3.250:8080/fhir/Condition/fefcd0f4-5ad6-4c98-8e77-b0254183bb4b",
            "resource": {
                "resourceType": "Condition",
                "id": "fefcd0f4-5ad6-4c98-8e77-b0254183bb4b",
                "meta": {
                    "versionId": "1",
                    "lastUpdated": "2023-09-29T04:34:07.690+00:00",
                    "profile": [
                        "https://hapi.fhir.tw/fhir/StructureDefinition/twcr-lf-date-of-diagnosis-condition-profile"
                    ]
                },
                "text": {
                    "status": "empty",
                    "div": "<div xmlns=\"http://www.w3.org/1999/xhtml\">目前為空值，可根據使用需求自行產生這筆資料的摘要資訊並填入此欄位</div>"
                },
                "subject": {
                    "reference": "Patient/5a621405-06ca-4b2f-84a8-6b6149c8631a"
                },
                "onsetPeriod": {
                    "start": "2017-06-22"
                }
            }
        },
        {
            "fullUrl": "http://152.38.3.250:8080/fhir/Condition/1fe89e1a-c96c-4517-8db5-6d397fd5ea53",
            "resource": {
                "resourceType": "Condition",
                "id": "1fe89e1a-c96c-4517-8db5-6d397fd5ea53",
                "meta": {
                    "versionId": "1",
                    "lastUpdated": "2023-09-29T04:34:07.738+00:00",
                    "profile": [
                        "https://hapi.fhir.tw/fhir/StructureDefinition/twcr-lf-date-of-microscopic-confirmation-profile"
                    ]
                },
                "text": {
                    "status": "empty",
                    "div": "<div xmlns=\"http://www.w3.org/1999/xhtml\">目前為空值，可根據使用需求自行產生這筆資料的摘要資訊並填入此欄位</div>"
                },
                "subject": {
                    "reference": "Patient/5a621405-06ca-4b2f-84a8-6b6149c8631a"
                },
                "onsetDateTime": "2002-11-11"
            }
        },
        {
            "fullUrl": "http://152.38.3.250:8080/fhir/Observation/e0c821e7-0e1a-4639-b959-b4ba81706ca0",
            "resource": {
                "resourceType": "Observation",
                "id": "e0c821e7-0e1a-4639-b959-b4ba81706ca0",
                "meta": {
                    "versionId": "1",
                    "lastUpdated": "2023-09-29T04:34:07.799+00:00",
                    "profile": [
                        "https://hapi.fhir.tw/fhir/StructureDefinition/twcr-lf-drinking-behavior-profile"
                    ]
                },
                "text": {
                    "status": "empty",
                    "div": "<div xmlns=\"http://www.w3.org/1999/xhtml\">目前為空值，可根據使用需求自行產生這筆資料的摘要資訊並填入此欄位</div>"
                },
                "status": "registered",
                "code": {
                    "coding": [
                        {
                            "system": "https://hapi.fhir.tw/fhir/CodeSystem/twcr-lf-observation-behavior-codesystem",
                            "code": "Drinking",
                            "display": "喝酒行為"
                        }
                    ]
                },
                "subject": {
                    "reference": "Patient/5a621405-06ca-4b2f-84a8-6b6149c8631a"
                },
                "encounter": {
                    "reference": "Encounter/84a6117f-f30f-461e-97a4-2c643d207c24"
                },
                "valueCodeableConcept": {
                    "coding": [
                        {
                            "system": "https://hapi.fhir.tw/fhir/CodeSystem/twcr-lf-drinking-behavior-codesystem",
                            "code": "999",
                            "display": "病歷未記載或不詳"
                        }
                    ]
                }
            }
        },
        {
            "fullUrl": "http://152.38.3.250:8080/fhir/Procedure/5677c1e4-4fed-43ff-b2e7-3535957ac1b8",
            "resource": {
                "resourceType": "Procedure",
                "id": "5677c1e4-4fed-43ff-b2e7-3535957ac1b8",
                "meta": {
                    "versionId": "1",
                    "lastUpdated": "2023-09-29T04:34:07.933+00:00",
                    "profile": [
                        "https://hapi.fhir.tw/fhir/StructureDefinition/twcr-lf-ebrt-technique-profile"
                    ]
                },
                "text": {
                    "status": "empty",
                    "div": "<div xmlns=\"http://www.w3.org/1999/xhtml\">目前為空值，可根據使用需求自行產生這筆資料的摘要資訊並填入此欄位</div>"
                },
                "extension": [
                    {
                        "url": "https://hapi.fhir.tw/fhir/StructureDefinition/twcr-lf-CTV-H-extension",
                        "extension": [
                            {
                                "url": "https://hapi.fhir.tw/fhir/StructureDefinition/twcr-lf-target-of-CTV-H-extension",
                                "valueCodeableConcept": {
                                    "coding": [
                                        {
                                            "system": "https://hapi.fhir.tw/fhir/CodeSystem/twcr-lf-target-of-CTVH-codesystem",
                                            "code": "0",
                                            "display": "No EBRT 無體外放射治療"
                                        }
                                    ]
                                }
                            },
                            {
                                "url": "https://hapi.fhir.tw/fhir/StructureDefinition/twcr-lf-dose-to-CTV-H-extension",
                                "valueCodeableConcept": {
                                    "coding": [
                                        {
                                            "system": "https://hapi.fhir.tw/fhir/CodeSystem/twcr-lf-dose-to-CTVH-codesystem",
                                            "code": "00000",
                                            "display": "沒有體外放射治療"
                                        }
                                    ]
                                }
                            },
                            {
                                "url": "https://hapi.fhir.tw/fhir/StructureDefinition/twcr-lf-number-of-fractions-to-CTV-H-extension",
                                "valueCodeableConcept": {
                                    "coding": [
                                        {
                                            "system": "https://hapi.fhir.tw/fhir/CodeSystem/twcr-lf-number-of-fractions-to-CTVH-codesystem",
                                            "code": "00",
                                            "display": "沒有體外放射治療"
                                        }
                                    ]
                                }
                            }
                        ]
                    },
                    {
                        "url": "https://hapi.fhir.tw/fhir/StructureDefinition/twcr-lf-CTV-L-extension",
                        "extension": [
                            {
                                "url": "https://hapi.fhir.tw/fhir/StructureDefinition/twcr-lf-target-of-CTV-L-extension",
                                "valueCodeableConcept": {
                                    "coding": [
                                        {
                                            "system": "https://hapi.fhir.tw/fhir/CodeSystem/twcr-lf-target-of-CTVL-codesystem",
                                            "code": "0",
                                            "display": "No EBRT 無體外放射治療"
                                        }
                                    ]
                                }
                            },
                            {
                                "url": "https://hapi.fhir.tw/fhir/StructureDefinition/twcr-lf-dose-to-CTV-L-extension",
                                "valueCodeableConcept": {
                                    "coding": [
                                        {
                                            "system": "https://hapi.fhir.tw/fhir/CodeSystem/twcr-lf-dose-to-CTVL-codesystem",
                                            "code": "00000",
                                            "display": "沒有體外放射治療，或是有體外放射治療但沒有 CTV_L"
                                        }
                                    ]
                                }
                            },
                            {
                                "url": "https://hapi.fhir.tw/fhir/StructureDefinition/twcr-lf-number-of-fractions-to-CTV-L-extension",
                                "valueCodeableConcept": {
                                    "coding": [
                                        {
                                            "system": "https://hapi.fhir.tw/fhir/CodeSystem/twcr-lf-number-of-fractions-to-CTVL-codesystem",
                                            "code": "00",
                                            "display": "沒有體外放射治療，或是有體外放射治療但沒有 CTV_L"
                                        }
                                    ]
                                }
                            }
                        ]
                    }
                ],
                "status": "completed",
                "category": {
                    "coding": [
                        {
                            "system": "https://hapi.fhir.tw/fhir/CodeSystem/twcr-lf-procedure-code-codesystem",
                            "code": "EBRTTechnique",
                            "display": "體外放射治療"
                        }
                    ]
                },
                "code": {
                    "coding": [
                        {
                            "system": "https://hapi.fhir.tw/fhir/CodeSystem/twcr-lf-ebrt-technique-codesystem",
                            "code": "0",
                            "display": "No EBRT 無體外放射治療"
                        }
                    ]
                },
                "subject": {
                    "reference": "Patient/5a621405-06ca-4b2f-84a8-6b6149c8631a"
                },
                "encounter": {
                    "reference": "Encounter/84a6117f-f30f-461e-97a4-2c643d207c24"
                }
            }
        },
        {
            "fullUrl": "http://152.38.3.250:8080/fhir/Procedure/5bab22fb-f535-43e3-ad02-59a0028219bd",
            "resource": {
                "resourceType": "Procedure",
                "id": "5bab22fb-f535-43e3-ad02-59a0028219bd",
                "meta": {
                    "versionId": "1",
                    "lastUpdated": "2023-09-29T04:34:08.013+00:00",
                    "profile": [
                        "https://hapi.fhir.tw/fhir/StructureDefinition/twcr-lf-first-course-of-treatment-profile"
                    ]
                },
                "text": {
                    "status": "empty",
                    "div": "<div xmlns=\"http://www.w3.org/1999/xhtml\">目前為空值，可根據使用需求自行產生這筆資料的摘要資訊並填入此欄位</div>"
                },
                "status": "completed",
                "code": {
                    "coding": [
                        {
                            "system": "https://hapi.fhir.tw/fhir/CodeSystem/twcr-lf-procedure-code-codesystem",
                            "code": "FirstCourceOfTreatment",
                            "display": "首次療程"
                        }
                    ]
                },
                "subject": {
                    "reference": "Patient/5a621405-06ca-4b2f-84a8-6b6149c8631a"
                },
                "encounter": {
                    "reference": "Encounter/84a6117f-f30f-461e-97a4-2c643d207c24"
                },
                "performedDateTime": "2002-11-11"
            }
        },
        {
            "fullUrl": "http://152.38.3.250:8080/fhir/Observation/3671ac08-fe9a-4ecc-be74-bf38e1bc3788",
            "resource": {
                "resourceType": "Observation",
                "id": "3671ac08-fe9a-4ecc-be74-bf38e1bc3788",
                "meta": {
                    "versionId": "1",
                    "lastUpdated": "2023-09-29T04:34:08.076+00:00",
                    "profile": [
                        "https://hapi.fhir.tw/fhir/StructureDefinition/twcr-lf-first-recurrence-profile"
                    ]
                },
                "text": {
                    "status": "empty",
                    "div": "<div xmlns=\"http://www.w3.org/1999/xhtml\">目前為空值，可根據使用需求自行產生這筆資料的摘要資訊並填入此欄位</div>"
                },
                "status": "registered",
                "code": {
                    "coding": [
                        {
                            "system": "https://snomed.info/sct",
                            "code": "246455001",
                            "display": "Recurrence"
                        }
                    ]
                },
                "subject": {
                    "reference": "Patient/5a621405-06ca-4b2f-84a8-6b6149c8631a"
                },
                "encounter": {
                    "reference": "Encounter/84a6117f-f30f-461e-97a4-2c643d207c24"
                },
                "valueCodeableConcept": {
                    "coding": [
                        {
                            "system": "https://hapi.fhir.tw/fhir/CodeSystem/twcr-lf-tpye-of-first-recurrence-codesystem",
                            "code": "70",
                            "display": "個案癌症確診後從未 disease-free 過。包括：(1)診斷為癌症時即已有遠端轉移 (2)全身性癌症 (3)原發部位不清楚 (4)癌症情況不嚴重尚未加以治療"
                        }
                    ]
                }
            }
        },
        {
            "fullUrl": "http://152.38.3.250:8080/fhir/Procedure/f557908e-c923-4cc5-b669-48544354472f",
            "resource": {
                "resourceType": "Procedure",
                "id": "f557908e-c923-4cc5-b669-48544354472f",
                "meta": {
                    "versionId": "1",
                    "lastUpdated": "2023-09-29T04:34:08.134+00:00",
                    "profile": [
                        "https://hapi.fhir.tw/fhir/StructureDefinition/twcr-lf-first-surgical-procedure-profile"
                    ]
                },
                "text": {
                    "status": "empty",
                    "div": "<div xmlns=\"http://www.w3.org/1999/xhtml\">目前為空值，可根據使用需求自行產生這筆資料的摘要資訊並填入此欄位</div>"
                },
                "status": "completed",
                "code": {
                    "coding": [
                        {
                            "system": "https://hapi.fhir.tw/fhir/CodeSystem/twcr-lf-procedure-code-codesystem",
                            "code": "FirstSurgicalProcedure",
                            "display": "首次手術"
                        }
                    ]
                },
                "subject": {
                    "reference": "Patient/5a621405-06ca-4b2f-84a8-6b6149c8631a"
                },
                "encounter": {
                    "reference": "Encounter/84a6117f-f30f-461e-97a4-2c643d207c24"
                },
                "performedDateTime": "2002-11-11"
            }
        },
        {
            "fullUrl": "http://152.38.3.250:8080/fhir/Observation/441626df-2257-44a1-ab6a-93c93cf9c92e",
            "resource": {
                "resourceType": "Observation",
                "id": "441626df-2257-44a1-ab6a-93c93cf9c92e",
                "meta": {
                    "versionId": "1",
                    "lastUpdated": "2023-09-29T04:34:08.224+00:00",
                    "profile": [
                        "https://hapi.fhir.tw/fhir/StructureDefinition/twcr-lf-grade-clinical-profile"
                    ]
                },
                "text": {
                    "status": "empty",
                    "div": "<div xmlns=\"http://www.w3.org/1999/xhtml\">目前為空值，可根據使用需求自行產生這筆資料的摘要資訊並填入此欄位</div>"
                },
                "status": "final",
                "code": {
                    "coding": [
                        {
                            "system": "https://loinc.org",
                            "code": "75620-5",
                            "display": "TNM clinical staging before treatment panel Cancer"
                        }
                    ]
                },
                "subject": {
                    "reference": "Patient/5a621405-06ca-4b2f-84a8-6b6149c8631a"
                },
                "encounter": {
                    "reference": "Encounter/84a6117f-f30f-461e-97a4-2c643d207c24"
                },
                "valueCodeableConcept": {
                    "coding": [
                        {
                            "system": "https://hapi.fhir.tw/fhir/CodeSystem/twcr-lf-grade-clinical-codesystem",
                            "code": "9",
                            "display": "(1)分化/分級不明、病歷未記載 (2)首次治療前未有分級/分化 (3)術後才診斷為癌症"
                        }
                    ]
                }
            }
        },
        {
            "fullUrl": "http://152.38.3.250:8080/fhir/Observation/0a479ac0-5400-4a69-8990-431d3ef80a95",
            "resource": {
                "resourceType": "Observation",
                "id": "0a479ac0-5400-4a69-8990-431d3ef80a95",
                "meta": {
                    "versionId": "1",
                    "lastUpdated": "2023-09-29T04:34:08.296+00:00",
                    "profile": [
                        "https://hapi.fhir.tw/fhir/StructureDefinition/twcr-lf-grade-pathological-profile"
                    ]
                },
                "text": {
                    "status": "empty",
                    "div": "<div xmlns=\"http://www.w3.org/1999/xhtml\">目前為空值，可根據使用需求自行產生這筆資料的摘要資訊並填入此欄位</div>"
                },
                "status": "final",
                "code": {
                    "coding": [
                        {
                            "system": "https://loinc.org",
                            "code": "75621-3",
                            "display": "TNM pathologic staging after surgery panel Cancer"
                        }
                    ]
                },
                "subject": {
                    "reference": "Patient/5a621405-06ca-4b2f-84a8-6b6149c8631a"
                },
                "encounter": {
                    "reference": "Encounter/84a6117f-f30f-461e-97a4-2c643d207c24"
                },
                "valueCodeableConcept": {
                    "coding": [
                        {
                            "system": "https://hapi.fhir.tw/fhir/CodeSystem/twcr-lf-grade-pathological-codesystem",
                            "code": "9",
                            "display": "(1)分化/分級不明、病歷未記載 (2)首次治療前未有分級/分化 (3)術後才診斷為癌症"
                        }
                    ]
                }
            }
        },
        {
            "fullUrl": "http://152.38.3.250:8080/fhir/Observation/575251a8-9c5c-436c-aa14-bea61ae5250a",
            "resource": {
                "resourceType": "Observation",
                "id": "575251a8-9c5c-436c-aa14-bea61ae5250a",
                "meta": {
                    "versionId": "1",
                    "lastUpdated": "2023-09-29T04:34:08.361+00:00",
                    "profile": [
                        "https://hapi.fhir.tw/fhir/StructureDefinition/twcr-lf-height-profile"
                    ]
                },
                "text": {
                    "status": "empty",
                    "div": "<div xmlns=\"http://www.w3.org/1999/xhtml\">目前為空值，可根據使用需求自行產生這筆資料的摘要資訊並填入此欄位</div>"
                },
                "status": "final",
                "code": {
                    "coding": [
                        {
                            "system": "https://loinc.org",
                            "code": "3137-7",
                            "display": "Body height Measured"
                        }
                    ]
                },
                "subject": {
                    "reference": "Patient/5a621405-06ca-4b2f-84a8-6b6149c8631a"
                },
                "encounter": {
                    "reference": "Encounter/84a6117f-f30f-461e-97a4-2c643d207c24"
                },
                "valueCodeableConcept": {
                    "coding": [
                        {
                            "system": "https://hapi.fhir.tw/fhir/CodeSystem/twcr-lf-height-codesystem",
                            "code": "999",
                            "display": "病歷未記載或不詳"
                        }
                    ]
                }
            }
        },
        {
            "fullUrl": "http://152.38.3.250:8080/fhir/Procedure/b4cde92e-6689-4297-8053-eb6c6373f790",
            "resource": {
                "resourceType": "Procedure",
                "id": "b4cde92e-6689-4297-8053-eb6c6373f790",
                "meta": {
                    "versionId": "1",
                    "lastUpdated": "2023-09-29T04:34:08.432+00:00",
                    "profile": [
                        "https://hapi.fhir.tw/fhir/StructureDefinition/twcr-lf-hematologic-transplant-endocrine-procedure-profile"
                    ]
                },
                "text": {
                    "status": "empty",
                    "div": "<div xmlns=\"http://www.w3.org/1999/xhtml\">目前為空值，可根據使用需求自行產生這筆資料的摘要資訊並填入此欄位</div>"
                },
                "status": "completed",
                "category": {
                    "coding": [
                        {
                            "system": "https://hapi.fhir.tw/fhir/CodeSystem/twcr-lf-procedure-code-codesystem",
                            "code": "HematologicTransplantAndEndocrineProcedure",
                            "display": "骨髓/幹細胞移植或內分泌處置"
                        }
                    ]
                },
                "code": {
                    "coding": [
                        {
                            "system": "https://hapi.fhir.tw/fhir/CodeSystem/twcr-lf-hematologic-transplant-and-endocrine-codesystem",
                            "code": "00",
                            "display": "(1)未接受骨髓/幹細胞移植或內分泌處置，骨髓/幹細胞移植或內分泌處置非首次療程的一部份 (2)由屍體解剖時才診斷為癌症"
                        }
                    ]
                },
                "subject": {
                    "reference": "Patient/5a621405-06ca-4b2f-84a8-6b6149c8631a"
                },
                "encounter": {
                    "reference": "Encounter/84a6117f-f30f-461e-97a4-2c643d207c24"
                },
                "performedPeriod": {
                    "start": "2002-11-11"
                }
            }
        },
        {
            "fullUrl": "http://152.38.3.250:8080/fhir/Procedure/359b8d57-06a6-4e5b-89b1-bf38ec7963ea",
            "resource": {
                "resourceType": "Procedure",
                "id": "359b8d57-06a6-4e5b-89b1-bf38ec7963ea",
                "meta": {
                    "versionId": "1",
                    "lastUpdated": "2023-09-29T04:34:08.515+00:00",
                    "profile": [
                        "https://hapi.fhir.tw/fhir/StructureDefinition/twcr-lf-hormone-steroid-therapy-profile"
                    ]
                },
                "text": {
                    "status": "empty",
                    "div": "<div xmlns=\"http://www.w3.org/1999/xhtml\">目前為空值，可根據使用需求自行產生這筆資料的摘要資訊並填入此欄位</div>"
                },
                "status": "completed",
                "category": {
                    "coding": [
                        {
                            "system": "https://hapi.fhir.tw/fhir/CodeSystem/twcr-lf-procedure-code-codesystem",
                            "code": "HormoneSteroid",
                            "display": "申報醫院荷爾蒙/類固醇治療"
                        }
                    ]
                },
                "code": {
                    "coding": [
                        {
                            "system": "https://hapi.fhir.tw/fhir/CodeSystem/twcr-lf-hormone-steroid-therapy-codesystem",
                            "code": "00",
                            "display": "(1)未接受荷爾蒙/類固醇治療，荷爾蒙/類固醇治療非首次療程的一部份 (2)由屍體解剖時才診斷為癌症"
                        }
                    ]
                },
                "subject": {
                    "reference": "Patient/5a621405-06ca-4b2f-84a8-6b6149c8631a"
                },
                "encounter": {
                    "reference": "Encounter/84a6117f-f30f-461e-97a4-2c643d207c24"
                },
                "performedPeriod": {
                    "start": "2002-11-11"
                }
            }
        },
        {
            "fullUrl": "http://152.38.3.250:8080/fhir/Procedure/bd23faec-5495-41cb-bf0c-a4560039c9da",
            "resource": {
                "resourceType": "Procedure",
                "id": "bd23faec-5495-41cb-bf0c-a4560039c9da",
                "meta": {
                    "versionId": "1",
                    "lastUpdated": "2023-09-29T04:34:08.582+00:00",
                    "profile": [
                        "https://hapi.fhir.tw/fhir/StructureDefinition/twcr-lf-hormone-steroid-therapy-at-other-facility-profile"
                    ]
                },
                "text": {
                    "status": "empty",
                    "div": "<div xmlns=\"http://www.w3.org/1999/xhtml\">目前為空值，可根據使用需求自行產生這筆資料的摘要資訊並填入此欄位</div>"
                },
                "status": "completed",
                "category": {
                    "coding": [
                        {
                            "system": "https://hapi.fhir.tw/fhir/CodeSystem/twcr-lf-procedure-code-codesystem",
                            "code": "OtherFacilityHormoneSteroid",
                            "display": "外院荷爾蒙/類固醇治療"
                        }
                    ]
                },
                "code": {
                    "coding": [
                        {
                            "system": "https://hapi.fhir.tw/fhir/CodeSystem/twcr-lf-other-hormone-steroid-therapy-codesystem",
                            "code": "00",
                            "display": "(1)未接受荷爾蒙/類固醇治療，荷爾蒙/類固醇治療非首次療程的一部份 (2)由屍體解剖時才診斷為癌症"
                        }
                    ]
                },
                "subject": {
                    "reference": "Patient/5a621405-06ca-4b2f-84a8-6b6149c8631a"
                },
                "encounter": {
                    "reference": "Encounter/84a6117f-f30f-461e-97a4-2c643d207c24"
                }
            }
        },
        {
            "fullUrl": "http://152.38.3.250:8080/fhir/Procedure/0cc2121d-687f-4a42-96a9-ede521c5b8d5",
            "resource": {
                "resourceType": "Procedure",
                "id": "0cc2121d-687f-4a42-96a9-ede521c5b8d5",
                "meta": {
                    "versionId": "1",
                    "lastUpdated": "2023-09-29T04:34:08.658+00:00",
                    "profile": [
                        "https://hapi.fhir.tw/fhir/StructureDefinition/twcr-lf-immunotherapy-profile"
                    ]
                },
                "text": {
                    "status": "empty",
                    "div": "<div xmlns=\"http://www.w3.org/1999/xhtml\">目前為空值，可根據使用需求自行產生這筆資料的摘要資訊並填入此欄位</div>"
                },
                "status": "completed",
                "category": {
                    "coding": [
                        {
                            "system": "https://hapi.fhir.tw/fhir/CodeSystem/twcr-lf-procedure-code-codesystem",
                            "code": "Immunotherapy",
                            "display": "申報醫院免疫治療"
                        }
                    ]
                },
                "code": {
                    "coding": [
                        {
                            "system": "https://hapi.fhir.tw/fhir/CodeSystem/twcr-lf-immunotherapy-codesystem",
                            "code": "00",
                            "display": "(1)未接受骨髓/幹細胞移植或內分泌處置，骨髓/幹細胞移植或內分泌處置非首次療程的一部份 (2)由屍體解剖時才診斷為癌症"
                        }
                    ]
                },
                "subject": {
                    "reference": "Patient/5a621405-06ca-4b2f-84a8-6b6149c8631a"
                },
                "encounter": {
                    "reference": "Encounter/84a6117f-f30f-461e-97a4-2c643d207c24"
                },
                "performedPeriod": {
                    "start": "2002-11-11"
                }
            }
        },
        {
            "fullUrl": "http://152.38.3.250:8080/fhir/Procedure/c0f4a170-88c7-49f8-9baa-1d93022fbec5",
            "resource": {
                "resourceType": "Procedure",
                "id": "c0f4a170-88c7-49f8-9baa-1d93022fbec5",
                "meta": {
                    "versionId": "1",
                    "lastUpdated": "2023-09-29T04:34:08.735+00:00",
                    "profile": [
                        "https://hapi.fhir.tw/fhir/StructureDefinition/twcr-lf-immunotherapy-at-other-facility-profile"
                    ]
                },
                "text": {
                    "status": "empty",
                    "div": "<div xmlns=\"http://www.w3.org/1999/xhtml\">目前為空值，可根據使用需求自行產生這筆資料的摘要資訊並填入此欄位</div>"
                },
                "status": "completed",
                "category": {
                    "coding": [
                        {
                            "system": "https://hapi.fhir.tw/fhir/CodeSystem/twcr-lf-procedure-code-codesystem",
                            "code": "OtherFacilityImmunotherapy",
                            "display": "外院免疫治療"
                        }
                    ]
                },
                "code": {
                    "coding": [
                        {
                            "system": "https://hapi.fhir.tw/fhir/CodeSystem/twcr-lf-other-immunotherapy-codesystem",
                            "code": "00",
                            "display": "(1)未接受免疫治療，免疫治療非首次療程的一部份 (2)由屍體解剖而診斷為癌症"
                        }
                    ]
                },
                "subject": {
                    "reference": "Patient/5a621405-06ca-4b2f-84a8-6b6149c8631a"
                },
                "encounter": {
                    "reference": "Encounter/84a6117f-f30f-461e-97a4-2c643d207c24"
                }
            }
        },
        {
            "fullUrl": "http://152.38.3.250:8080/fhir/Observation/33387bef-ee8f-4c22-9918-abec6954d8c0",
            "resource": {
                "resourceType": "Observation",
                "id": "33387bef-ee8f-4c22-9918-abec6954d8c0",
                "meta": {
                    "versionId": "1",
                    "lastUpdated": "2023-09-29T04:34:08.799+00:00",
                    "profile": [
                        "https://hapi.fhir.tw/fhir/StructureDefinition/twcr-lf-lymph-vascular-invasion-profile"
                    ]
                },
                "text": {
                    "status": "empty",
                    "div": "<div xmlns=\"http://www.w3.org/1999/xhtml\">目前為空值，可根據使用需求自行產生這筆資料的摘要資訊並填入此欄位</div>"
                },
                "status": "final",
                "code": {
                    "coding": [
                        {
                            "system": "https://loinc.org",
                            "code": "59544-7",
                            "display": "Lymph-vascular invasion Cancer specimen"
                        }
                    ]
                },
                "subject": {
                    "reference": "Patient/5a621405-06ca-4b2f-84a8-6b6149c8631a"
                },
                "encounter": {
                    "reference": "Encounter/84a6117f-f30f-461e-97a4-2c643d207c24"
                },
                "valueCodeableConcept": {
                    "coding": [
                        {
                            "system": "https://hapi.fhir.tw/fhir/CodeSystem/twcr-lf-lymph-vascular-invasion-codesystem",
                            "code": "8",
                            "display": "不適用。(1)GIST、NETs、High grade dysplasia (severe dysplasia)、原位癌 (2)淋巴瘤及白血病 (3)Plasma cell myeloma (4)中樞神經系統之惡性腫瘤 (5)原發部位不詳個案 (6)原發部位未執行病理檢查或僅細胞學檢查"
                        }
                    ]
                }
            }
        },
        {
            "fullUrl": "http://152.38.3.250:8080/fhir/Procedure/03e73330-1775-4765-a357-e841474e4805",
            "resource": {
                "resourceType": "Procedure",
                "id": "03e73330-1775-4765-a357-e841474e4805",
                "meta": {
                    "versionId": "1",
                    "lastUpdated": "2023-09-29T04:34:08.872+00:00",
                    "profile": [
                        "https://hapi.fhir.tw/fhir/StructureDefinition/twcr-lf-minimally-invasive-surgery-profile"
                    ]
                },
                "text": {
                    "status": "empty",
                    "div": "<div xmlns=\"http://www.w3.org/1999/xhtml\">目前為空值，可根據使用需求自行產生這筆資料的摘要資訊並填入此欄位</div>"
                },
                "status": "completed",
                "code": {
                    "coding": [
                        {
                            "system": "https://hapi.fhir.tw/fhir/CodeSystem/twcr-lf-minimally-invasive-surgery-codesystem",
                            "code": "8",
                            "display": "不適用：(1)原發部位未接受手術 (2)原發部位手術方式編碼10-19 (3)攝護腺癌個案原發部位手術方式編碼21-27 (4) 個案於外院接受原發部位手術(不論是否有接受微創或機械臂手術) (5) 2017年(含)之前診斷之個案 (6) 造血/網狀內皮/免疫增生/骨髓增生疾病"
                        }
                    ]
                },
                "subject": {
                    "reference": "Patient/5a621405-06ca-4b2f-84a8-6b6149c8631a"
                },
                "encounter": {
                    "reference": "Encounter/84a6117f-f30f-461e-97a4-2c643d207c24"
                }
            }
        },
        {
            "fullUrl": "http://152.38.3.250:8080/fhir/Procedure/c5382685-fef1-48b2-bfec-505bd84f8d5e",
            "resource": {
                "resourceType": "Procedure",
                "id": "c5382685-fef1-48b2-bfec-505bd84f8d5e",
                "meta": {
                    "versionId": "1",
                    "lastUpdated": "2023-09-29T04:34:08.945+00:00",
                    "profile": [
                        "https://hapi.fhir.tw/fhir/StructureDefinition/twcr-lf-other-rt-profile"
                    ]
                },
                "text": {
                    "status": "empty",
                    "div": "<div xmlns=\"http://www.w3.org/1999/xhtml\">目前為空值，可根據使用需求自行產生這筆資料的摘要資訊並填入此欄位</div>"
                },
                "extension": [
                    {
                        "url": "https://hapi.fhir.tw/fhir/StructureDefinition/twcr-lf-other-rt-technique-extension",
                        "valueCodeableConcept": {
                            "coding": [
                                {
                                    "system": "https://hapi.fhir.tw/fhir/CodeSystem/twcr-lf-other-rt-technique-1-codesystem",
                                    "code": "0",
                                    "display": "No Other RT 無其他特殊放射治療"
                                }
                            ]
                        }
                    }
                ],
                "status": "completed",
                "category": {
                    "coding": [
                        {
                            "system": "https://hapi.fhir.tw/fhir/CodeSystem/twcr-lf-procedure-code-codesystem",
                            "code": "OtherRT",
                            "display": "其他放射治療"
                        }
                    ]
                },
                "code": {
                    "coding": [
                        {
                            "system": "https://hapi.fhir.tw/fhir/CodeSystem/twcr-lf-other-rt-modality-codesystem",
                            "code": "0",
                            "display": "No Other RT 無其他特殊放射治療"
                        }
                    ]
                },
                "subject": {
                    "reference": "Patient/5a621405-06ca-4b2f-84a8-6b6149c8631a"
                },
                "encounter": {
                    "reference": "Encounter/84a6117f-f30f-461e-97a4-2c643d207c24"
                }
            }
        },
        {
            "fullUrl": "http://152.38.3.250:8080/fhir/Procedure/d5a439d0-c989-4b46-b601-698e6f39dd5b",
            "resource": {
                "resourceType": "Procedure",
                "id": "d5a439d0-c989-4b46-b601-698e6f39dd5b",
                "meta": {
                    "versionId": "1",
                    "lastUpdated": "2023-09-29T04:34:09.025+00:00",
                    "profile": [
                        "https://hapi.fhir.tw/fhir/StructureDefinition/twcr-lf-other-treatment-profile"
                    ]
                },
                "text": {
                    "status": "empty",
                    "div": "<div xmlns=\"http://www.w3.org/1999/xhtml\">目前為空值，可根據使用需求自行產生這筆資料的摘要資訊並填入此欄位</div>"
                },
                "status": "completed",
                "category": {
                    "coding": [
                        {
                            "system": "https://hapi.fhir.tw/fhir/CodeSystem/twcr-lf-procedure-code-codesystem",
                            "code": "OtherTreatment",
                            "display": "其他治療"
                        }
                    ]
                },
                "code": {
                    "coding": [
                        {
                            "system": "https://hapi.fhir.tw/fhir/CodeSystem/twcr-lf-other-treatment-codesystem",
                            "code": "00",
                            "display": "(1)未接受其他治療，其他治療非首次療程的一部份 (2)由屍體解剖時才診斷為癌症 (3)個案於申報醫院接受臨床試驗藥物治療，且依據藥物種類編碼於化學/荷爾蒙/類固醇/免疫/標靶欄位"
                        }
                    ]
                },
                "subject": {
                    "reference": "Patient/5a621405-06ca-4b2f-84a8-6b6149c8631a"
                },
                "encounter": {
                    "reference": "Encounter/84a6117f-f30f-461e-97a4-2c643d207c24"
                },
                "performedPeriod": {
                    "start": "2002-11-11"
                }
            }
        },
        {
            "fullUrl": "http://152.38.3.250:8080/fhir/Procedure/360bbfa1-133c-48e5-91cb-97a1ab1c45b2",
            "resource": {
                "resourceType": "Procedure",
                "id": "360bbfa1-133c-48e5-91cb-97a1ab1c45b2",
                "meta": {
                    "versionId": "1",
                    "lastUpdated": "2023-09-29T04:34:09.106+00:00",
                    "profile": [
                        "https://hapi.fhir.tw/fhir/StructureDefinition/twcr-lf-palliative-care-profile"
                    ]
                },
                "text": {
                    "status": "empty",
                    "div": "<div xmlns=\"http://www.w3.org/1999/xhtml\">目前為空值，可根據使用需求自行產生這筆資料的摘要資訊並填入此欄位</div>"
                },
                "status": "completed",
                "category": {
                    "coding": [
                        {
                            "system": "https://hapi.fhir.tw/fhir/CodeSystem/twcr-lf-procedure-code-codesystem",
                            "code": "PalliativeCare",
                            "display": "申報醫院緩和照護"
                        }
                    ]
                },
                "code": {
                    "coding": [
                        {
                            "system": "https://hapi.fhir.tw/fhir/CodeSystem/twcr-lf-palliative-care-codesystem",
                            "code": "0",
                            "display": "(1)個案未接受緩和照護 (2)屍體解剖時才診斷為癌症"
                        }
                    ]
                },
                "subject": {
                    "reference": "Patient/5a621405-06ca-4b2f-84a8-6b6149c8631a"
                },
                "encounter": {
                    "reference": "Encounter/84a6117f-f30f-461e-97a4-2c643d207c24"
                }
            }
        },
        {
            "fullUrl": "http://152.38.3.250:8080/fhir/Observation/eae43dc3-ec3b-4125-8e9a-665b66581bf3",
            "resource": {
                "resourceType": "Observation",
                "id": "eae43dc3-ec3b-4125-8e9a-665b66581bf3",
                "meta": {
                    "versionId": "1",
                    "lastUpdated": "2023-09-29T04:34:09.174+00:00",
                    "profile": [
                        "https://hapi.fhir.tw/fhir/StructureDefinition/twcr-lf-pathologic-other-staging-profile"
                    ]
                },
                "text": {
                    "status": "empty",
                    "div": "<div xmlns=\"http://www.w3.org/1999/xhtml\">目前為空值，可根據使用需求自行產生這筆資料的摘要資訊並填入此欄位</div>"
                },
                "status": "final",
                "code": {
                    "coding": [
                        {
                            "system": "https://loinc.org",
                            "code": "21902-2",
                            "display": "Stage group.pathology Cancer"
                        }
                    ]
                },
                "subject": {
                    "reference": "Patient/5a621405-06ca-4b2f-84a8-6b6149c8631a"
                },
                "encounter": {
                    "reference": "Encounter/84a6117f-f30f-461e-97a4-2c643d207c24"
                },
                "valueCodeableConcept": {
                    "coding": [
                        {
                            "system": "https://hapi.fhir.tw/fhir/CodeSystem/twcr-lf-pathologic-other-staging-codesystem",
                            "code": "0000",
                            "display": "無使用其他分期系統"
                        }
                    ],
                    "text": "0"
                },
                "method": {
                    "coding": [
                        {
                            "system": "https://hapi.fhir.tw/fhir/CodeSystem/twcr-lf-other-staging-system-codesystem",
                            "code": "00",
                            "display": "無其他分期系統"
                        }
                    ]
                }
            }
        },
        {
            "fullUrl": "http://152.38.3.250:8080/fhir/Observation/8bab53e4-d238-4c98-8727-ad7214ab0f02",
            "resource": {
                "resourceType": "Observation",
                "id": "8bab53e4-d238-4c98-8727-ad7214ab0f02",
                "meta": {
                    "versionId": "1",
                    "lastUpdated": "2023-09-29T04:34:09.257+00:00",
                    "profile": [
                        "https://hapi.fhir.tw/fhir/StructureDefinition/twcr-lf-pathologic-stage-profile"
                    ]
                },
                "text": {
                    "status": "empty",
                    "div": "<div xmlns=\"http://www.w3.org/1999/xhtml\">目前為空值，可根據使用需求自行產生這筆資料的摘要資訊並填入此欄位</div>"
                },
                "status": "final",
                "code": {
                    "coding": [
                        {
                            "system": "https://loinc.org",
                            "code": "21902-2",
                            "display": "Stage group.pathology Cancer"
                        }
                    ]
                },
                "subject": {
                    "reference": "Patient/5a621405-06ca-4b2f-84a8-6b6149c8631a"
                },
                "encounter": {
                    "reference": "Encounter/84a6117f-f30f-461e-97a4-2c643d207c24"
                },
                "valueCodeableConcept": {
                    "coding": [
                        {
                            "system": "https://hapi.fhir.tw/fhir/CodeSystem/twcr-lf-pathologic-stage-group-codesystem",
                            "code": "BBB",
                            "display": "(僅適用 AJCC 第七、 八版個案)"
                        }
                    ]
                },
                "method": {
                    "coding": [
                        {
                            "system": "https://hapi.fhir.tw/fhir/CodeSystem/twcr-lf-edition-and-chapter-of-AJCC-cancer-staging-codesystem",
                            "code": "08006",
                            "display": "第八版第 6 章"
                        }
                    ],
                    "text": "第八版第 6 章"
                },
                "hasMember": [
                    {
                        "reference": "Observation/259276ef-944e-41b8-9c1f-edc1be9b44be"
                    },
                    {
                        "reference": "Observation/b290b9da-ad76-4f4b-bdae-4d60d87dd8f1"
                    },
                    {
                        "reference": "Observation/67e25ac7-79cb-4a9d-b64d-6b5e7356045b"
                    }
                ]
            }
        },
        {
            "fullUrl": "http://152.38.3.250:8080/fhir/Observation/f3719865-76bf-4def-abc0-65e6b1c56d98",
            "resource": {
                "resourceType": "Observation",
                "id": "f3719865-76bf-4def-abc0-65e6b1c56d98",
                "meta": {
                    "versionId": "1",
                    "lastUpdated": "2023-09-29T04:34:09.355+00:00",
                    "profile": [
                        "https://hapi.fhir.tw/fhir/StructureDefinition/twcr-lf-pathologic-stage-prefix-suffix-description-profile"
                    ]
                },
                "text": {
                    "status": "empty",
                    "div": "<div xmlns=\"http://www.w3.org/1999/xhtml\">目前為空值，可根據使用需求自行產生這筆資料的摘要資訊並填入此欄位</div>"
                },
                "status": "final",
                "code": {
                    "coding": [
                        {
                            "system": "https://loinc.org",
                            "code": "21903-0",
                            "display": "Descriptor.pathology Cancer Narrative"
                        }
                    ]
                },
                "subject": {
                    "reference": "Patient/5a621405-06ca-4b2f-84a8-6b6149c8631a"
                },
                "encounter": {
                    "reference": "Encounter/84a6117f-f30f-461e-97a4-2c643d207c24"
                },
                "valueCodeableConcept": {
                    "coding": [
                        {
                            "system": "https://hapi.fhir.tw/fhir/CodeSystem/twcr-lf-pathologic-stage-prefix-suffix-descriptor-codesystem",
                            "code": "0",
                            "display": "無"
                        }
                    ]
                },
                "method": {
                    "coding": [
                        {
                            "system": "https://hapi.fhir.tw/fhir/CodeSystem/twcr-lf-edition-and-chapter-of-AJCC-cancer-staging-codesystem",
                            "code": "08006",
                            "display": "第八版第 6 章"
                        }
                    ],
                    "text": "第八版第 6 章"
                }
            }
        },
        {
            "fullUrl": "http://152.38.3.250:8080/fhir/Observation/b56f656f-1bc3-48dd-8804-3d6e481d7838",
            "resource": {
                "resourceType": "Observation",
                "id": "b56f656f-1bc3-48dd-8804-3d6e481d7838",
                "meta": {
                    "versionId": "1",
                    "lastUpdated": "2023-09-29T04:34:09.418+00:00",
                    "profile": [
                        "https://hapi.fhir.tw/fhir/StructureDefinition/twcr-lf-perineural-invasion-profile"
                    ]
                },
                "text": {
                    "status": "empty",
                    "div": "<div xmlns=\"http://www.w3.org/1999/xhtml\">目前為空值，可根據使用需求自行產生這筆資料的摘要資訊並填入此欄位</div>"
                },
                "status": "final",
                "code": {
                    "coding": [
                        {
                            "system": "https://loinc.org",
                            "code": "92837-4",
                            "display": "Perineural invasion [Presence] in Cancer specimen"
                        }
                    ]
                },
                "subject": {
                    "reference": "Patient/5a621405-06ca-4b2f-84a8-6b6149c8631a"
                },
                "encounter": {
                    "reference": "Encounter/84a6117f-f30f-461e-97a4-2c643d207c24"
                },
                "valueCodeableConcept": {
                    "coding": [
                        {
                            "system": "https://hapi.fhir.tw/fhir/CodeSystem/twcr-lf-perineural-invasion-codesystem",
                            "code": "8",
                            "display": "不適用：(1)GIST、NETs、High grade dysplasia (Severe dysplasia)、原位癌 (2)淋巴瘤及白血病 (3)Plasma cell myeloma (4)中樞神經系統之惡性腫瘤 (5)原發部位不詳 (6)原發部位未執行病理檢查或僅執行細胞學檢查"
                        }
                    ]
                }
            }
        },
        {
            "fullUrl": "http://152.38.3.250:8080/fhir/Condition/f0df08a5-f23b-46a7-966a-46438223eb2f",
            "resource": {
                "resourceType": "Condition",
                "id": "f0df08a5-f23b-46a7-966a-46438223eb2f",
                "meta": {
                    "versionId": "1",
                    "lastUpdated": "2023-09-29T04:34:09.510+00:00",
                    "profile": [
                        "https://hapi.fhir.tw/fhir/StructureDefinition/twcr-lf-primary-cancer-profile"
                    ]
                },
                "text": {
                    "status": "empty",
                    "div": "<div xmlns=\"http://www.w3.org/1999/xhtml\">目前為空值，可根據使用需求自行產生這筆資料的摘要資訊並填入此欄位</div>"
                },
                "extension": [
                    {
                        "url": "https://hapi.fhir.tw/fhir/StructureDefinition/twcr-lf-histology-extension",
                        "valueCodeableConcept": {
                            "coding": [
                                {
                                    "system": "https://hapi.fhir.tw/fhir/CodeSystem/twcr-lf-histology-codesystem",
                                    "code": "8312",
                                    "display": "Renal cell carcinoma, NOS/ Renal cell adenocarcinoma/ Renal cell carcinoma, unclassified/ Grawitz tumor/ Hypernephroma"
                                }
                            ]
                        }
                    },
                    {
                        "url": "https://hapi.fhir.tw/fhir/StructureDefinition/twcr-lf-behavior-code-extension",
                        "valueCodeableConcept": {
                            "coding": [
                                {
                                    "system": "https://hapi.fhir.tw/fhir/CodeSystem/twcr-lf-behavior-code-codesystem",
                                    "code": "3",
                                    "display": "invasive"
                                }
                            ]
                        }
                    }
                ],
                "bodySite": [
                    {
                        "coding": [
                            {
                                "system": "https://hapi.fhir.tw/fhir/CodeSystem/twcr-lf-primary-site-codesystem",
                                "code": "C000",
                                "display": "External lip upper"
                            }
                        ]
                    },
                    {
                        "coding": [
                            {
                                "system": "https://hapi.fhir.tw/fhir/CodeSystem/twcr-lf-laterality-codesystem",
                                "code": "1",
                                "display": "原發起源位在右側"
                            }
                        ]
                    }
                ],
                "subject": {
                    "reference": "Patient/5a621405-06ca-4b2f-84a8-6b6149c8631a"
                }
            }
        },
        {
            "fullUrl": "http://152.38.3.250:8080/fhir/Procedure/cf42bc4b-f60e-49ad-a68f-89214508dab8",
            "resource": {
                "resourceType": "Procedure",
                "id": "cf42bc4b-f60e-49ad-a68f-89214508dab8",
                "meta": {
                    "versionId": "1",
                    "lastUpdated": "2023-09-29T04:34:09.567+00:00",
                    "profile": [
                        "https://hapi.fhir.tw/fhir/StructureDefinition/twcr-lf-reason-for-no-surgery-of-primary-site-profile"
                    ]
                },
                "text": {
                    "status": "empty",
                    "div": "<div xmlns=\"http://www.w3.org/1999/xhtml\">目前為空值，可根據使用需求自行產生這筆資料的摘要資訊並填入此欄位</div>"
                },
                "status": "completed",
                "subject": {
                    "reference": "Patient/5a621405-06ca-4b2f-84a8-6b6149c8631a"
                },
                "encounter": {
                    "reference": "Encounter/84a6117f-f30f-461e-97a4-2c643d207c24"
                },
                "reasonCode": [
                    {
                        "coding": [
                            {
                                "system": "https://hapi.fhir.tw/fhir/CodeSystem/twcr-lf-reason-for-no-surgery-of-primary-site-codesystem",
                                "code": "1",
                                "display": "手術治療非既定之首次療程計畫中的一部分"
                            }
                        ]
                    }
                ]
            }
        },
        {
            "fullUrl": "http://152.38.3.250:8080/fhir/Observation/880ac499-b442-44cd-80fa-3c1ca7b571a8",
            "resource": {
                "resourceType": "Observation",
                "id": "880ac499-b442-44cd-80fa-3c1ca7b571a8",
                "meta": {
                    "versionId": "1",
                    "lastUpdated": "2023-09-29T04:34:09.628+00:00",
                    "profile": [
                        "https://hapi.fhir.tw/fhir/StructureDefinition/twcr-lf-regional-lymph-nodes-examined-profile"
                    ]
                },
                "text": {
                    "status": "empty",
                    "div": "<div xmlns=\"http://www.w3.org/1999/xhtml\">目前為空值，可根據使用需求自行產生這筆資料的摘要資訊並填入此欄位</div>"
                },
                "status": "final",
                "code": {
                    "coding": [
                        {
                            "system": "https://loinc.org",
                            "code": "21894-1",
                            "display": "Regional lymph nodes examined [#] Specimen"
                        }
                    ]
                },
                "subject": {
                    "reference": "Patient/5a621405-06ca-4b2f-84a8-6b6149c8631a"
                },
                "encounter": {
                    "reference": "Encounter/84a6117f-f30f-461e-97a4-2c643d207c24"
                },
                "valueCodeableConcept": {
                    "coding": [
                        {
                            "system": "https://hapi.fhir.tw/fhir/CodeSystem/twcr-lf-regional-lymph-node-examined-codesystem",
                            "code": "00",
                            "display": "未檢查區域淋巴結"
                        }
                    ]
                }
            }
        },
        {
            "fullUrl": "http://152.38.3.250:8080/fhir/Observation/10f11a74-d5a3-46f9-9b5f-0a417bbcd596",
            "resource": {
                "resourceType": "Observation",
                "id": "10f11a74-d5a3-46f9-9b5f-0a417bbcd596",
                "meta": {
                    "versionId": "1",
                    "lastUpdated": "2023-09-29T04:34:09.690+00:00",
                    "profile": [
                        "https://hapi.fhir.tw/fhir/StructureDefinition/twcr-lf-regional-lymph-nodes-positive-profile"
                    ]
                },
                "text": {
                    "status": "empty",
                    "div": "<div xmlns=\"http://www.w3.org/1999/xhtml\">目前為空值，可根據使用需求自行產生這筆資料的摘要資訊並填入此欄位</div>"
                },
                "status": "final",
                "code": {
                    "coding": [
                        {
                            "system": "https://loinc.org",
                            "code": "21893-3",
                            "display": "Regional lymph nodes positive [#] Specimen"
                        }
                    ]
                },
                "subject": {
                    "reference": "Patient/5a621405-06ca-4b2f-84a8-6b6149c8631a"
                },
                "encounter": {
                    "reference": "Encounter/84a6117f-f30f-461e-97a4-2c643d207c24"
                },
                "valueCodeableConcept": {
                    "coding": [
                        {
                            "system": "https://hapi.fhir.tw/fhir/CodeSystem/twcr-lf-regional-lymph-node-positive-codesystem",
                            "code": "98",
                            "display": "未檢查區域淋巴結"
                        }
                    ]
                }
            }
        },
        {
            "fullUrl": "http://152.38.3.250:8080/fhir/Procedure/6c8a9393-0499-4400-9ae9-94fca5490960",
            "resource": {
                "resourceType": "Procedure",
                "id": "6c8a9393-0499-4400-9ae9-94fca5490960",
                "meta": {
                    "versionId": "1",
                    "lastUpdated": "2023-09-29T04:34:09.796+00:00",
                    "profile": [
                        "https://hapi.fhir.tw/fhir/StructureDefinition/twcr-lf-rt-profile"
                    ]
                },
                "text": {
                    "status": "empty",
                    "div": "<div xmlns=\"http://www.w3.org/1999/xhtml\">目前為空值，可根據使用需求自行產生這筆資料的摘要資訊並填入此欄位</div>"
                },
                "extension": [
                    {
                        "url": "https://hapi.fhir.tw/fhir/StructureDefinition/twcr-lf-rt-target-summary-extension",
                        "valueCodeableConcept": {
                            "coding": [
                                {
                                    "system": "https://hapi.fhir.tw/fhir/CodeSystem/twcr-lf-rt-target-summary-codesystem",
                                    "code": "0",
                                    "display": "No radiation therapy 無放射治療"
                                }
                            ]
                        }
                    },
                    {
                        "url": "https://hapi.fhir.tw/fhir/StructureDefinition/twcr-lf-rt-status-extension",
                        "valueCodeableConcept": {
                            "coding": [
                                {
                                    "system": "https://hapi.fhir.tw/fhir/CodeSystem/twcr-lf-rt-status-codesystem",
                                    "code": "01",
                                    "display": "放射治療非既定之首次療程計畫中的一部分"
                                }
                            ]
                        }
                    }
                ],
                "status": "completed",
                "category": {
                    "coding": [
                        {
                            "system": "https://hapi.fhir.tw/fhir/CodeSystem/twcr-lf-procedure-code-codesystem",
                            "code": "RT",
                            "display": "申報醫院放射治療"
                        }
                    ]
                },
                "code": {
                    "coding": [
                        {
                            "system": "https://hapi.fhir.tw/fhir/CodeSystem/twcr-lf-rt-modality-codesystem",
                            "code": "0",
                            "display": "No radiation therapy 無放射治療"
                        }
                    ]
                },
                "subject": {
                    "reference": "Patient/5a621405-06ca-4b2f-84a8-6b6149c8631a"
                },
                "encounter": {
                    "reference": "Encounter/84a6117f-f30f-461e-97a4-2c643d207c24"
                }
            }
        },
        {
            "fullUrl": "http://152.38.3.250:8080/fhir/Procedure/8995e420-7d45-4a34-9cd1-60f782914314",
            "resource": {
                "resourceType": "Procedure",
                "id": "8995e420-7d45-4a34-9cd1-60f782914314",
                "meta": {
                    "versionId": "1",
                    "lastUpdated": "2023-09-29T04:34:09.856+00:00",
                    "profile": [
                        "https://hapi.fhir.tw/fhir/StructureDefinition/twcr-lf-scope-of-regional-lymph-node-surgery-profile"
                    ]
                },
                "text": {
                    "status": "empty",
                    "div": "<div xmlns=\"http://www.w3.org/1999/xhtml\">目前為空值，可根據使用需求自行產生這筆資料的摘要資訊並填入此欄位</div>"
                },
                "status": "completed",
                "code": {
                    "coding": [
                        {
                            "system": "https://hapi.fhir.tw/fhir/CodeSystem/twcr-lf-scope-of-regional-lymph-node-surgery-codesystem",
                            "code": "0",
                            "display": "未進行區域淋巴結處置"
                        }
                    ]
                },
                "subject": {
                    "reference": "Patient/5a621405-06ca-4b2f-84a8-6b6149c8631a"
                },
                "encounter": {
                    "reference": "Encounter/84a6117f-f30f-461e-97a4-2c643d207c24"
                }
            }
        },
        {
            "fullUrl": "http://152.38.3.250:8080/fhir/Procedure/392fbb26-25bf-4504-b245-9cc69b464ede",
            "resource": {
                "resourceType": "Procedure",
                "id": "392fbb26-25bf-4504-b245-9cc69b464ede",
                "meta": {
                    "versionId": "1",
                    "lastUpdated": "2023-09-29T04:34:09.912+00:00",
                    "profile": [
                        "https://hapi.fhir.tw/fhir/StructureDefinition/twcr-lf-scope-of-regional-lymph-node-at-other-facility-profile"
                    ]
                },
                "text": {
                    "status": "empty",
                    "div": "<div xmlns=\"http://www.w3.org/1999/xhtml\">目前為空值，可根據使用需求自行產生這筆資料的摘要資訊並填入此欄位</div>"
                },
                "status": "completed",
                "code": {
                    "coding": [
                        {
                            "system": "https://hapi.fhir.tw/fhir/CodeSystem/twcr-lf-other-scope-of-regional-lymph-node-surgery-codesystem",
                            "code": "0",
                            "display": "未進行區域淋巴結處置"
                        }
                    ]
                },
                "subject": {
                    "reference": "Patient/5a621405-06ca-4b2f-84a8-6b6149c8631a"
                },
                "encounter": {
                    "reference": "Encounter/84a6117f-f30f-461e-97a4-2c643d207c24"
                }
            }
        },
        {
            "fullUrl": "http://152.38.3.250:8080/fhir/Procedure/58625198-dbc4-4fc7-a9e4-15164102c5b8",
            "resource": {
                "resourceType": "Procedure",
                "id": "58625198-dbc4-4fc7-a9e4-15164102c5b8",
                "meta": {
                    "versionId": "1",
                    "lastUpdated": "2023-09-29T04:34:09.992+00:00",
                    "profile": [
                        "https://hapi.fhir.tw/fhir/StructureDefinition/twcr-lf-sequence-of-locoregional-and-systemic-profile"
                    ]
                },
                "text": {
                    "status": "empty",
                    "div": "<div xmlns=\"http://www.w3.org/1999/xhtml\">目前為空值，可根據使用需求自行產生這筆資料的摘要資訊並填入此欄位</div>"
                },
                "status": "completed",
                "code": {
                    "coding": [
                        {
                            "system": "https://hapi.fhir.tw/fhir/CodeSystem/twcr-lf-sequence-of-locoregional-and-systemic-codesystem",
                            "code": "0",
                            "display": "No medical therapy 無藥物治療"
                        }
                    ]
                },
                "subject": {
                    "reference": "Patient/5a621405-06ca-4b2f-84a8-6b6149c8631a"
                },
                "encounter": {
                    "reference": "Encounter/84a6117f-f30f-461e-97a4-2c643d207c24"
                }
            }
        },
        {
            "fullUrl": "http://152.38.3.250:8080/fhir/Procedure/b386894d-4fa7-4657-9267-5040d6c739e1",
            "resource": {
                "resourceType": "Procedure",
                "id": "b386894d-4fa7-4657-9267-5040d6c739e1",
                "meta": {
                    "versionId": "1",
                    "lastUpdated": "2023-09-29T04:34:10.053+00:00",
                    "profile": [
                        "https://hapi.fhir.tw/fhir/StructureDefinition/twcr-lf-sequence-of-radiotherapy-and-surgery-profile"
                    ]
                },
                "text": {
                    "status": "empty",
                    "div": "<div xmlns=\"http://www.w3.org/1999/xhtml\">目前為空值，可根據使用需求自行產生這筆資料的摘要資訊並填入此欄位</div>"
                },
                "status": "completed",
                "code": {
                    "coding": [
                        {
                            "system": "https://hapi.fhir.tw/fhir/CodeSystem/twcr-lf-sequence-of-radiotherapy-and-surgery-codesystem",
                            "code": "0",
                            "display": "No radiation therapy 無放射治療"
                        }
                    ]
                },
                "subject": {
                    "reference": "Patient/5a621405-06ca-4b2f-84a8-6b6149c8631a"
                },
                "encounter": {
                    "reference": "Encounter/84a6117f-f30f-461e-97a4-2c643d207c24"
                }
            }
        },
        {
            "fullUrl": "http://152.38.3.250:8080/fhir/Observation/f69bcbec-a69f-4c84-962f-863b391a3627",
            "resource": {
                "resourceType": "Observation",
                "id": "f69bcbec-a69f-4c84-962f-863b391a3627",
                "meta": {
                    "versionId": "1",
                    "lastUpdated": "2023-09-29T04:34:10.140+00:00",
                    "profile": [
                        "https://hapi.fhir.tw/fhir/StructureDefinition/twcr-lf-smoking-behavior-profile"
                    ]
                },
                "text": {
                    "status": "empty",
                    "div": "<div xmlns=\"http://www.w3.org/1999/xhtml\">目前為空值，可根據使用需求自行產生這筆資料的摘要資訊並填入此欄位</div>"
                },
                "status": "final",
                "code": {
                    "coding": [
                        {
                            "system": "https://hapi.fhir.tw/fhir/CodeSystem/twcr-lf-observation-behavior-codesystem",
                            "code": "Smoking",
                            "display": "吸菸行為"
                        }
                    ]
                },
                "subject": {
                    "reference": "Patient/5a621405-06ca-4b2f-84a8-6b6149c8631a"
                },
                "encounter": {
                    "reference": "Encounter/84a6117f-f30f-461e-97a4-2c643d207c24"
                },
                "component": [
                    {
                        "code": {
                            "coding": [
                                {
                                    "system": "https://hapi.fhir.tw/fhir/CodeSystem/twcr-lf-smoking-behavior-codesystem",
                                    "code": "amount",
                                    "display": "每日吸菸量，以”支”計算"
                                }
                            ]
                        },
                        "valueCodeableConcept": {
                            "coding": [
                                {
                                    "system": "https://hapi.fhir.tw/fhir/CodeSystem/twcr-lf-smoking-amount-codesystem",
                                    "code": "99",
                                    "display": "病歷未記載或吸菸狀態完全不詳者"
                                }
                            ]
                        }
                    },
                    {
                        "code": {
                            "coding": [
                                {
                                    "system": "https://hapi.fhir.tw/fhir/CodeSystem/twcr-lf-smoking-behavior-codesystem",
                                    "code": "year",
                                    "display": "吸菸年"
                                }
                            ]
                        },
                        "valueCodeableConcept": {
                            "coding": [
                                {
                                    "system": "https://hapi.fhir.tw/fhir/CodeSystem/twcr-lf-smoking-year-codesystem",
                                    "code": "99",
                                    "display": "病歷未記載或吸菸狀態完全不詳者"
                                }
                            ]
                        }
                    },
                    {
                        "code": {
                            "coding": [
                                {
                                    "system": "https://hapi.fhir.tw/fhir/CodeSystem/twcr-lf-smoking-behavior-codesystem",
                                    "code": "quit",
                                    "display": "戒菸年"
                                }
                            ]
                        },
                        "valueCodeableConcept": {
                            "coding": [
                                {
                                    "system": "https://hapi.fhir.tw/fhir/CodeSystem/twcr-lf-smoking-quit-codesystem",
                                    "code": "99",
                                    "display": "病歷未記載或戒菸狀態完全不詳者"
                                }
                            ]
                        }
                    }
                ]
            }
        },
        {
            "fullUrl": "http://152.38.3.250:8080/fhir/Observation/96ba267b-3e77-451c-aefa-3da7e4e59ed8",
            "resource": {
                "resourceType": "Observation",
                "id": "96ba267b-3e77-451c-aefa-3da7e4e59ed8",
                "meta": {
                    "versionId": "1",
                    "lastUpdated": "2023-09-29T04:34:10.214+00:00",
                    "profile": [
                        "https://hapi.fhir.tw/fhir/StructureDefinition/twcr-lf-ssf-1-profile"
                    ]
                },
                "text": {
                    "status": "empty",
                    "div": "<div xmlns=\"http://www.w3.org/1999/xhtml\">目前為空值，可根據使用需求自行產生這筆資料的摘要資訊並填入此欄位</div>"
                },
                "status": "final",
                "code": {
                    "coding": [
                        {
                            "system": "https://loinc.org",
                            "code": "42086-9",
                            "display": "Collaborative staging site-Specific factor 1 Cancer"
                        }
                    ]
                },
                "subject": {
                    "reference": "Patient/5a621405-06ca-4b2f-84a8-6b6149c8631a"
                },
                "encounter": {
                    "reference": "Encounter/84a6117f-f30f-461e-97a4-2c643d207c24"
                },
                "valueCodeableConcept": {
                    "text": "988"
                }
            }
        },
        {
            "fullUrl": "http://152.38.3.250:8080/fhir/Observation/66228807-7e9b-48d6-9bc1-656137902ec3",
            "resource": {
                "resourceType": "Observation",
                "id": "66228807-7e9b-48d6-9bc1-656137902ec3",
                "meta": {
                    "versionId": "1",
                    "lastUpdated": "2023-09-29T04:34:10.271+00:00",
                    "profile": [
                        "https://hapi.fhir.tw/fhir/StructureDefinition/twcr-lf-ssf-10-profile"
                    ]
                },
                "text": {
                    "status": "empty",
                    "div": "<div xmlns=\"http://www.w3.org/1999/xhtml\">目前為空值，可根據使用需求自行產生這筆資料的摘要資訊並填入此欄位</div>"
                },
                "status": "final",
                "code": {
                    "coding": [
                        {
                            "system": "https://loinc.org",
                            "code": "59492-9",
                            "display": "Collaborative staging site-specific factor 10 Cancer"
                        }
                    ]
                },
                "subject": {
                    "reference": "Patient/5a621405-06ca-4b2f-84a8-6b6149c8631a"
                },
                "encounter": {
                    "reference": "Encounter/84a6117f-f30f-461e-97a4-2c643d207c24"
                },
                "valueCodeableConcept": {
                    "text": "988"
                }
            }
        },
        {
            "fullUrl": "http://152.38.3.250:8080/fhir/Observation/047ce733-efad-4df4-b00e-500aede0db4f",
            "resource": {
                "resourceType": "Observation",
                "id": "047ce733-efad-4df4-b00e-500aede0db4f",
                "meta": {
                    "versionId": "1",
                    "lastUpdated": "2023-09-29T04:34:10.334+00:00",
                    "profile": [
                        "https://hapi.fhir.tw/fhir/StructureDefinition/twcr-lf-ssf-2-profile"
                    ]
                },
                "text": {
                    "status": "empty",
                    "div": "<div xmlns=\"http://www.w3.org/1999/xhtml\">目前為空值，可根據使用需求自行產生這筆資料的摘要資訊並填入此欄位</div>"
                },
                "status": "final",
                "code": {
                    "coding": [
                        {
                            "system": "https://loinc.org",
                            "code": "42087-7",
                            "display": "Collaborative staging site-Specific factor 2 Cancer"
                        }
                    ]
                },
                "subject": {
                    "reference": "Patient/5a621405-06ca-4b2f-84a8-6b6149c8631a"
                },
                "encounter": {
                    "reference": "Encounter/84a6117f-f30f-461e-97a4-2c643d207c24"
                },
                "valueCodeableConcept": {
                    "text": "988"
                }
            }
        },
        {
            "fullUrl": "http://152.38.3.250:8080/fhir/Observation/c25fce88-11c2-4be2-933c-b2f8a8d59a24",
            "resource": {
                "resourceType": "Observation",
                "id": "c25fce88-11c2-4be2-933c-b2f8a8d59a24",
                "meta": {
                    "versionId": "1",
                    "lastUpdated": "2023-09-29T04:34:10.397+00:00",
                    "profile": [
                        "https://hapi.fhir.tw/fhir/StructureDefinition/twcr-lf-ssf-3-profile"
                    ]
                },
                "text": {
                    "status": "empty",
                    "div": "<div xmlns=\"http://www.w3.org/1999/xhtml\">目前為空值，可根據使用需求自行產生這筆資料的摘要資訊並填入此欄位</div>"
                },
                "status": "final",
                "code": {
                    "coding": [
                        {
                            "system": "https://loinc.org",
                            "code": "42088-5",
                            "display": "Collaborative staging site-Specific factor 3 Cancer"
                        }
                    ]
                },
                "subject": {
                    "reference": "Patient/5a621405-06ca-4b2f-84a8-6b6149c8631a"
                },
                "encounter": {
                    "reference": "Encounter/84a6117f-f30f-461e-97a4-2c643d207c24"
                },
                "valueCodeableConcept": {
                    "text": "988"
                }
            }
        },
        {
            "fullUrl": "http://152.38.3.250:8080/fhir/Observation/e2fb75a4-11b1-42ed-aa60-d29997a733d9",
            "resource": {
                "resourceType": "Observation",
                "id": "e2fb75a4-11b1-42ed-aa60-d29997a733d9",
                "meta": {
                    "versionId": "1",
                    "lastUpdated": "2023-09-29T04:34:10.451+00:00",
                    "profile": [
                        "https://hapi.fhir.tw/fhir/StructureDefinition/twcr-lf-ssf-4-profile"
                    ]
                },
                "text": {
                    "status": "empty",
                    "div": "<div xmlns=\"http://www.w3.org/1999/xhtml\">目前為空值，可根據使用需求自行產生這筆資料的摘要資訊並填入此欄位</div>"
                },
                "status": "final",
                "code": {
                    "coding": [
                        {
                            "system": "https://loinc.org",
                            "code": "42089-3",
                            "display": "Collaborative staging site-Specific factor 4 Cancer"
                        }
                    ]
                },
                "subject": {
                    "reference": "Patient/5a621405-06ca-4b2f-84a8-6b6149c8631a"
                },
                "valueCodeableConcept": {
                    "text": "988"
                }
            }
        },
        {
            "fullUrl": "http://152.38.3.250:8080/fhir/Observation/630f31f4-318b-4cb0-98ca-25f7d0eda01a",
            "resource": {
                "resourceType": "Observation",
                "id": "630f31f4-318b-4cb0-98ca-25f7d0eda01a",
                "meta": {
                    "versionId": "1",
                    "lastUpdated": "2023-09-29T04:34:10.502+00:00",
                    "profile": [
                        "https://hapi.fhir.tw/fhir/StructureDefinition/twcr-lf-ssf-5-profile"
                    ]
                },
                "text": {
                    "status": "empty",
                    "div": "<div xmlns=\"http://www.w3.org/1999/xhtml\">目前為空值，可根據使用需求自行產生這筆資料的摘要資訊並填入此欄位</div>"
                },
                "status": "final",
                "code": {
                    "coding": [
                        {
                            "system": "https://loinc.org",
                            "code": "42090-1",
                            "display": "Collaborative staging site-Specific factor 5 Cancer"
                        }
                    ]
                },
                "subject": {
                    "reference": "Patient/5a621405-06ca-4b2f-84a8-6b6149c8631a"
                },
                "valueCodeableConcept": {
                    "text": "988"
                }
            }
        },
        {
            "fullUrl": "http://152.38.3.250:8080/fhir/Observation/08703111-d2bf-4de6-adfb-60cdefa99b89",
            "resource": {
                "resourceType": "Observation",
                "id": "08703111-d2bf-4de6-adfb-60cdefa99b89",
                "meta": {
                    "versionId": "1",
                    "lastUpdated": "2023-09-29T04:34:10.563+00:00",
                    "profile": [
                        "https://hapi.fhir.tw/fhir/StructureDefinition/twcr-lf-ssf-6-profile"
                    ]
                },
                "text": {
                    "status": "empty",
                    "div": "<div xmlns=\"http://www.w3.org/1999/xhtml\">目前為空值，可根據使用需求自行產生這筆資料的摘要資訊並填入此欄位</div>"
                },
                "status": "final",
                "code": {
                    "coding": [
                        {
                            "system": "https://loinc.org",
                            "code": "42091-9",
                            "display": "Collaborative staging site-Specific factor 6 Cancer"
                        }
                    ]
                },
                "subject": {
                    "reference": "Patient/5a621405-06ca-4b2f-84a8-6b6149c8631a"
                },
                "valueCodeableConcept": {
                    "text": "988"
                }
            }
        },
        {
            "fullUrl": "http://152.38.3.250:8080/fhir/Observation/c60d43cf-3d37-49a2-b23d-f6ef3be56e85",
            "resource": {
                "resourceType": "Observation",
                "id": "c60d43cf-3d37-49a2-b23d-f6ef3be56e85",
                "meta": {
                    "versionId": "1",
                    "lastUpdated": "2023-09-29T04:34:10.619+00:00",
                    "profile": [
                        "https://hapi.fhir.tw/fhir/StructureDefinition/twcr-lf-ssf-7-profile"
                    ]
                },
                "text": {
                    "status": "empty",
                    "div": "<div xmlns=\"http://www.w3.org/1999/xhtml\">目前為空值，可根據使用需求自行產生這筆資料的摘要資訊並填入此欄位</div>"
                },
                "status": "final",
                "code": {
                    "coding": [
                        {
                            "system": "https://loinc.org",
                            "code": "59489-5",
                            "display": "Collaborative staging site-specific factor 7 Cancer"
                        }
                    ]
                },
                "subject": {
                    "reference": "Patient/5a621405-06ca-4b2f-84a8-6b6149c8631a"
                },
                "encounter": {
                    "reference": "Encounter/84a6117f-f30f-461e-97a4-2c643d207c24"
                },
                "valueCodeableConcept": {
                    "text": "988"
                }
            }
        },
        {
            "fullUrl": "http://152.38.3.250:8080/fhir/Observation/f1c65b37-f182-4ef6-a025-18f02a4bb360",
            "resource": {
                "resourceType": "Observation",
                "id": "f1c65b37-f182-4ef6-a025-18f02a4bb360",
                "meta": {
                    "versionId": "1",
                    "lastUpdated": "2023-09-29T04:34:10.686+00:00",
                    "profile": [
                        "https://hapi.fhir.tw/fhir/StructureDefinition/twcr-lf-ssf-8-profile"
                    ]
                },
                "text": {
                    "status": "empty",
                    "div": "<div xmlns=\"http://www.w3.org/1999/xhtml\">目前為空值，可根據使用需求自行產生這筆資料的摘要資訊並填入此欄位</div>"
                },
                "status": "final",
                "code": {
                    "coding": [
                        {
                            "system": "https://loinc.org",
                            "code": "59490-3",
                            "display": "Collaborative staging site-specific factor 8 Cancer"
                        }
                    ]
                },
                "subject": {
                    "reference": "Patient/5a621405-06ca-4b2f-84a8-6b6149c8631a"
                },
                "encounter": {
                    "reference": "Encounter/84a6117f-f30f-461e-97a4-2c643d207c24"
                },
                "valueCodeableConcept": {
                    "text": "988"
                }
            }
        },
        {
            "fullUrl": "http://152.38.3.250:8080/fhir/Observation/4a7b340a-82bb-4fe2-bbbf-9e735fe71583",
            "resource": {
                "resourceType": "Observation",
                "id": "4a7b340a-82bb-4fe2-bbbf-9e735fe71583",
                "meta": {
                    "versionId": "1",
                    "lastUpdated": "2023-09-29T04:34:10.751+00:00",
                    "profile": [
                        "https://hapi.fhir.tw/fhir/StructureDefinition/twcr-lf-ssf-9-profile"
                    ]
                },
                "text": {
                    "status": "empty",
                    "div": "<div xmlns=\"http://www.w3.org/1999/xhtml\">目前為空值，可根據使用需求自行產生這筆資料的摘要資訊並填入此欄位</div>"
                },
                "status": "final",
                "code": {
                    "coding": [
                        {
                            "system": "https://loinc.org",
                            "code": "59491-1",
                            "display": "Collaborative staging site-specific factor 9 Cancer"
                        }
                    ]
                },
                "subject": {
                    "reference": "Patient/5a621405-06ca-4b2f-84a8-6b6149c8631a"
                },
                "encounter": {
                    "reference": "Encounter/84a6117f-f30f-461e-97a4-2c643d207c24"
                },
                "valueCodeableConcept": {
                    "text": "988"
                }
            }
        },
        {
            "fullUrl": "http://152.38.3.250:8080/fhir/Procedure/025f2275-ad9e-4c24-b375-3e98539c1120",
            "resource": {
                "resourceType": "Procedure",
                "id": "025f2275-ad9e-4c24-b375-3e98539c1120",
                "meta": {
                    "versionId": "1",
                    "lastUpdated": "2023-09-29T04:34:10.830+00:00",
                    "profile": [
                        "https://hapi.fhir.tw/fhir/StructureDefinition/twcr-lf-surgical-diagnostic-and-staging-procedure-profile"
                    ]
                },
                "text": {
                    "status": "empty",
                    "div": "<div xmlns=\"http://www.w3.org/1999/xhtml\">目前為空值，可根據使用需求自行產生這筆資料的摘要資訊並填入此欄位</div>"
                },
                "status": "completed",
                "category": {
                    "coding": [
                        {
                            "system": "https://hapi.fhir.tw/fhir/CodeSystem/twcr-lf-procedure-code-codesystem",
                            "code": "SurgicalDiagnosticAndStagingProcedure",
                            "display": "申報醫院診斷性及分期性手術處置"
                        }
                    ]
                },
                "code": {
                    "coding": [
                        {
                            "system": "https://hapi.fhir.tw/fhir/CodeSystem/twcr-lf-surgical-diagnostic-and-staging-procedure-codesystem",
                            "code": "00",
                            "display": "未進行診斷性或分期性的手術處置"
                        }
                    ]
                },
                "subject": {
                    "reference": "Patient/5a621405-06ca-4b2f-84a8-6b6149c8631a"
                },
                "encounter": {
                    "reference": "Encounter/84a6117f-f30f-461e-97a4-2c643d207c24"
                },
                "performedDateTime": "2002-11-11"
            }
        },
        {
            "fullUrl": "http://152.38.3.250:8080/fhir/Procedure/b1a711a9-0441-420b-a3c2-5e042b1d3392",
            "resource": {
                "resourceType": "Procedure",
                "id": "b1a711a9-0441-420b-a3c2-5e042b1d3392",
                "meta": {
                    "versionId": "1",
                    "lastUpdated": "2023-09-29T04:34:10.898+00:00",
                    "profile": [
                        "https://hapi.fhir.tw/fhir/StructureDefinition/twcr-lf-surgical-diagnostic-staging-at-other-facility-profile"
                    ]
                },
                "text": {
                    "status": "empty",
                    "div": "<div xmlns=\"http://www.w3.org/1999/xhtml\">目前為空值，可根據使用需求自行產生這筆資料的摘要資訊並填入此欄位</div>"
                },
                "status": "completed",
                "category": {
                    "coding": [
                        {
                            "system": "https://hapi.fhir.tw/fhir/CodeSystem/twcr-lf-procedure-code-codesystem",
                            "code": "OtherFacilitySurgicalDiagnosticAndStagingProcedure",
                            "display": "外院診斷性及分期性手術處置"
                        }
                    ]
                },
                "code": {
                    "coding": [
                        {
                            "system": "https://hapi.fhir.tw/fhir/CodeSystem/twcr-lf-other-surgical-diagnostic-and-staging-codesystem",
                            "code": "00",
                            "display": "未進行診斷性或分期性的手術處置"
                        }
                    ]
                },
                "subject": {
                    "reference": "Patient/5a621405-06ca-4b2f-84a8-6b6149c8631a"
                },
                "encounter": {
                    "reference": "Encounter/84a6117f-f30f-461e-97a4-2c643d207c24"
                }
            }
        },
        {
            "fullUrl": "http://152.38.3.250:8080/fhir/Observation/b52451a7-d9cd-439e-9581-ae1ca46736cb",
            "resource": {
                "resourceType": "Observation",
                "id": "b52451a7-d9cd-439e-9581-ae1ca46736cb",
                "meta": {
                    "versionId": "1",
                    "lastUpdated": "2023-09-29T04:34:10.945+00:00",
                    "profile": [
                        "https://hapi.fhir.tw/fhir/StructureDefinition/twcr-lf-surgical-margins-distance-of-the-primary-site-profile"
                    ]
                },
                "text": {
                    "status": "empty",
                    "div": "<div xmlns=\"http://www.w3.org/1999/xhtml\">目前為空值，可根據使用需求自行產生這筆資料的摘要資訊並填入此欄位</div>"
                },
                "status": "final",
                "code": {
                    "coding": [
                        {
                            "system": "https://loinc.org",
                            "code": "81184-4",
                            "display": "Distance of tumor from circumferential resection margin [Length] by Microscopy"
                        }
                    ]
                },
                "subject": {
                    "reference": "Patient/5a621405-06ca-4b2f-84a8-6b6149c8631a"
                },
                "encounter": {
                    "reference": "Encounter/84a6117f-f30f-461e-97a4-2c643d207c24"
                },
                "valueQuantity": {
                    "value": 998,
                    "unit": "millimeter",
                    "system": "https://unitsofmeasure.org",
                    "code": "mm"
                }
            }
        },
        {
            "fullUrl": "http://152.38.3.250:8080/fhir/Observation/753561f9-8c30-4b42-a324-4acd73ae3903",
            "resource": {
                "resourceType": "Observation",
                "id": "753561f9-8c30-4b42-a324-4acd73ae3903",
                "meta": {
                    "versionId": "1",
                    "lastUpdated": "2023-09-29T04:34:11.018+00:00",
                    "profile": [
                        "https://hapi.fhir.tw/fhir/StructureDefinition/twcr-lf-surgical-margins-of-the-primary-site-profile"
                    ]
                },
                "text": {
                    "status": "empty",
                    "div": "<div xmlns=\"http://www.w3.org/1999/xhtml\">目前為空值，可根據使用需求自行產生這筆資料的摘要資訊並填入此欄位</div>"
                },
                "status": "final",
                "code": {
                    "coding": [
                        {
                            "system": "https://loinc.org",
                            "code": "21939-4",
                            "display": "Surgical margins cancer involvement"
                        }
                    ]
                },
                "subject": {
                    "reference": "Patient/5a621405-06ca-4b2f-84a8-6b6149c8631a"
                },
                "encounter": {
                    "reference": "Encounter/84a6117f-f30f-461e-97a4-2c643d207c24"
                },
                "valueCodeableConcept": {
                    "coding": [
                        {
                            "system": "https://hapi.fhir.tw/fhir/CodeSystem/twcr-lf-surgical-margins-of-the-primary-site-codesystem",
                            "code": "8",
                            "display": "未針對原發腫瘤進行手術"
                        }
                    ]
                }
            }
        },
        {
            "fullUrl": "http://152.38.3.250:8080/fhir/Procedure/cd0cb3b8-948c-4439-8c3b-9cd4bf122dc3",
            "resource": {
                "resourceType": "Procedure",
                "id": "cd0cb3b8-948c-4439-8c3b-9cd4bf122dc3",
                "meta": {
                    "versionId": "1",
                    "lastUpdated": "2023-09-29T04:34:11.080+00:00",
                    "profile": [
                        "https://hapi.fhir.tw/fhir/StructureDefinition/twcr-lf-surgical-procedure-of-primary-site-profile"
                    ]
                },
                "text": {
                    "status": "empty",
                    "div": "<div xmlns=\"http://www.w3.org/1999/xhtml\">目前為空值，可根據使用需求自行產生這筆資料的摘要資訊並填入此欄位</div>"
                },
                "status": "completed",
                "category": {
                    "coding": [
                        {
                            "system": "https://hapi.fhir.tw/fhir/CodeSystem/twcr-lf-procedure-code-codesystem",
                            "code": "SurgicalProcedureOfPrimarySite",
                            "display": "申報醫院原發部位手術方式"
                        }
                    ]
                },
                "code": {
                    "coding": [
                        {
                            "system": "https://hapi.fhir.tw/fhir/CodeSystem/twcr-lf-surgical-procedure-of-primary-site-codesystem",
                            "code": "00",
                            "display": "未進行原發部位切除手術"
                        }
                    ],
                    "text": "99"
                },
                "subject": {
                    "reference": "Patient/5a621405-06ca-4b2f-84a8-6b6149c8631a"
                },
                "performedDateTime": "2002-11-11"
            }
        },
        {
            "fullUrl": "http://152.38.3.250:8080/fhir/Procedure/6a53fa7e-e56f-4fa7-892b-28147aadd042",
            "resource": {
                "resourceType": "Procedure",
                "id": "6a53fa7e-e56f-4fa7-892b-28147aadd042",
                "meta": {
                    "versionId": "1",
                    "lastUpdated": "2023-09-29T04:34:11.162+00:00",
                    "profile": [
                        "https://hapi.fhir.tw/fhir/StructureDefinition/twcr-lf-surgical-of-primary-site-at-other-facility-profile"
                    ]
                },
                "text": {
                    "status": "empty",
                    "div": "<div xmlns=\"http://www.w3.org/1999/xhtml\">目前為空值，可根據使用需求自行產生這筆資料的摘要資訊並填入此欄位</div>"
                },
                "status": "completed",
                "category": {
                    "coding": [
                        {
                            "system": "https://hapi.fhir.tw/fhir/CodeSystem/twcr-lf-procedure-code-codesystem",
                            "code": "OtherSurgicalProcedureOfPrimarySite",
                            "display": "外院原發部位手術方式"
                        }
                    ]
                },
                "code": {
                    "coding": [
                        {
                            "system": "https://hapi.fhir.tw/fhir/CodeSystem/twcr-lf-other-surgical-procedure-of-primary-site-codesystem",
                            "code": "00",
                            "display": "未進行原發部位切除手術"
                        }
                    ],
                    "text": "99"
                },
                "subject": {
                    "reference": "Patient/5a621405-06ca-4b2f-84a8-6b6149c8631a"
                },
                "encounter": {
                    "reference": "Encounter/84a6117f-f30f-461e-97a4-2c643d207c24"
                },
                "performedDateTime": "2002-11-11"
            }
        },
        {
            "fullUrl": "http://152.38.3.250:8080/fhir/Procedure/d9af2f3e-b37d-471d-b9f7-4e060a46ca81",
            "resource": {
                "resourceType": "Procedure",
                "id": "d9af2f3e-b37d-471d-b9f7-4e060a46ca81",
                "meta": {
                    "versionId": "1",
                    "lastUpdated": "2023-09-29T04:34:11.244+00:00",
                    "profile": [
                        "https://hapi.fhir.tw/fhir/StructureDefinition/twcr-lf-surgical-procedure-other-site-profile"
                    ]
                },
                "text": {
                    "status": "empty",
                    "div": "<div xmlns=\"http://www.w3.org/1999/xhtml\">目前為空值，可根據使用需求自行產生這筆資料的摘要資訊並填入此欄位</div>"
                },
                "status": "completed",
                "code": {
                    "coding": [
                        {
                            "system": "https://hapi.fhir.tw/fhir/CodeSystem/twcr-lf-surgical-procedure-other-site-codesystem",
                            "code": "0",
                            "display": "未切除原發腫瘤外的部位"
                        }
                    ]
                },
                "subject": {
                    "reference": "Patient/5a621405-06ca-4b2f-84a8-6b6149c8631a"
                },
                "encounter": {
                    "reference": "Encounter/84a6117f-f30f-461e-97a4-2c643d207c24"
                }
            }
        },
        {
            "fullUrl": "http://152.38.3.250:8080/fhir/Procedure/bf010573-efbb-4862-8dd0-cf428c3435af",
            "resource": {
                "resourceType": "Procedure",
                "id": "bf010573-efbb-4862-8dd0-cf428c3435af",
                "meta": {
                    "versionId": "1",
                    "lastUpdated": "2023-09-29T04:34:11.316+00:00",
                    "profile": [
                        "https://hapi.fhir.tw/fhir/StructureDefinition/twcr-lf-surgical-procedure-other-site-at-other-facility-profile"
                    ]
                },
                "text": {
                    "status": "empty",
                    "div": "<div xmlns=\"http://www.w3.org/1999/xhtml\">目前為空值，可根據使用需求自行產生這筆資料的摘要資訊並填入此欄位</div>"
                },
                "status": "completed",
                "code": {
                    "coding": [
                        {
                            "system": "https://hapi.fhir.tw/fhir/CodeSystem/twcr-lf-other-surgical-procedure-other-site-codesystem",
                            "code": "0",
                            "display": "未切除原發腫瘤外的部位"
                        }
                    ]
                },
                "subject": {
                    "reference": "Patient/5a621405-06ca-4b2f-84a8-6b6149c8631a"
                },
                "encounter": {
                    "reference": "Encounter/84a6117f-f30f-461e-97a4-2c643d207c24"
                }
            }
        },
        {
            "fullUrl": "http://152.38.3.250:8080/fhir/Procedure/7100af60-7314-4ee5-b06b-bb9f705fb4fa",
            "resource": {
                "resourceType": "Procedure",
                "id": "7100af60-7314-4ee5-b06b-bb9f705fb4fa",
                "meta": {
                    "versionId": "1",
                    "lastUpdated": "2023-09-29T04:34:11.369+00:00",
                    "profile": [
                        "https://hapi.fhir.tw/fhir/StructureDefinition/twcr-lf-systemic-therapy-profile"
                    ]
                },
                "text": {
                    "status": "empty",
                    "div": "<div xmlns=\"http://www.w3.org/1999/xhtml\">目前為空值，可根據使用需求自行產生這筆資料的摘要資訊並填入此欄位</div>"
                },
                "status": "completed",
                "code": {
                    "coding": [
                        {
                            "system": "https://hapi.fhir.tw/fhir/CodeSystem/twcr-lf-procedure-code-codesystem",
                            "code": "SystemicTherapy",
                            "display": "全身性治療"
                        }
                    ]
                },
                "subject": {
                    "reference": "Patient/5a621405-06ca-4b2f-84a8-6b6149c8631a"
                },
                "encounter": {
                    "reference": "Encounter/84a6117f-f30f-461e-97a4-2c643d207c24"
                },
                "performedDateTime": "2002-11-11"
            }
        },
        {
            "fullUrl": "http://152.38.3.250:8080/fhir/Procedure/5064f623-7599-4bb3-965f-f857442815ce",
            "resource": {
                "resourceType": "Procedure",
                "id": "5064f623-7599-4bb3-965f-f857442815ce",
                "meta": {
                    "versionId": "1",
                    "lastUpdated": "2023-09-29T04:34:11.452+00:00",
                    "profile": [
                        "https://hapi.fhir.tw/fhir/StructureDefinition/twcr-lf-targeted-therapy-profile"
                    ]
                },
                "text": {
                    "status": "empty",
                    "div": "<div xmlns=\"http://www.w3.org/1999/xhtml\">目前為空值，可根據使用需求自行產生這筆資料的摘要資訊並填入此欄位</div>"
                },
                "status": "completed",
                "category": {
                    "coding": [
                        {
                            "system": "https://hapi.fhir.tw/fhir/CodeSystem/twcr-lf-procedure-code-codesystem",
                            "code": "TargetedTherapy",
                            "display": "申報醫院標靶治療"
                        }
                    ]
                },
                "code": {
                    "coding": [
                        {
                            "system": "https://hapi.fhir.tw/fhir/CodeSystem/twcr-lf-targeted-therapy-codesystem",
                            "code": "00",
                            "display": "(1)未接受標靶治療，標靶治療非首次療程的一部份 (2)由屍體解剖時才診斷為癌症"
                        }
                    ]
                },
                "subject": {
                    "reference": "Patient/5a621405-06ca-4b2f-84a8-6b6149c8631a"
                },
                "encounter": {
                    "reference": "Encounter/84a6117f-f30f-461e-97a4-2c643d207c24"
                },
                "performedPeriod": {
                    "start": "2002-11-11"
                }
            }
        },
        {
            "fullUrl": "http://152.38.3.250:8080/fhir/Procedure/e2ebda75-6aff-426e-9e7e-66cf1e61843f",
            "resource": {
                "resourceType": "Procedure",
                "id": "e2ebda75-6aff-426e-9e7e-66cf1e61843f",
                "meta": {
                    "versionId": "1",
                    "lastUpdated": "2023-09-29T04:34:11.522+00:00",
                    "profile": [
                        "https://hapi.fhir.tw/fhir/StructureDefinition/twcr-lf-targeted-therapy-at-other-facility-profile"
                    ]
                },
                "text": {
                    "status": "empty",
                    "div": "<div xmlns=\"http://www.w3.org/1999/xhtml\">目前為空值，可根據使用需求自行產生這筆資料的摘要資訊並填入此欄位</div>"
                },
                "status": "completed",
                "category": {
                    "coding": [
                        {
                            "system": "https://hapi.fhir.tw/fhir/CodeSystem/twcr-lf-procedure-code-codesystem",
                            "code": "OtherFacilityTargetedTherapy",
                            "display": "外院標靶治療"
                        }
                    ]
                },
                "code": {
                    "coding": [
                        {
                            "system": "https://hapi.fhir.tw/fhir/CodeSystem/twcr-lf-other-targeted-therapy-codesystem",
                            "code": "00",
                            "display": "(1)未接受標靶治療，標靶治療非首次療程的一部份 (2)由屍體解剖時才診斷為癌症"
                        }
                    ]
                },
                "subject": {
                    "reference": "Patient/5a621405-06ca-4b2f-84a8-6b6149c8631a"
                },
                "encounter": {
                    "reference": "Encounter/84a6117f-f30f-461e-97a4-2c643d207c24"
                }
            }
        },
        {
            "fullUrl": "http://152.38.3.250:8080/fhir/Observation/2cb0360f-28a8-418f-bf25-5a81796c21fd",
            "resource": {
                "resourceType": "Observation",
                "id": "2cb0360f-28a8-418f-bf25-5a81796c21fd",
                "meta": {
                    "versionId": "1",
                    "lastUpdated": "2023-09-29T04:34:11.581+00:00",
                    "profile": [
                        "https://hapi.fhir.tw/fhir/StructureDefinition/twcr-lf-tumor-size-profile"
                    ]
                },
                "text": {
                    "status": "empty",
                    "div": "<div xmlns=\"http://www.w3.org/1999/xhtml\">目前為空值，可根據使用需求自行產生這筆資料的摘要資訊並填入此欄位</div>"
                },
                "status": "final",
                "code": {
                    "coding": [
                        {
                            "system": "https://loinc.org",
                            "code": "33728-7",
                            "display": "Size.maximum dimension in Tumor"
                        }
                    ]
                },
                "subject": {
                    "reference": "Patient/5a621405-06ca-4b2f-84a8-6b6149c8631a"
                },
                "encounter": {
                    "reference": "Encounter/84a6117f-f30f-461e-97a4-2c643d207c24"
                },
                "valueQuantity": {
                    "value": 59,
                    "unit": "millimeter",
                    "system": "https://unitsofmeasure.org",
                    "code": "mm"
                }
            }
        },
        {
            "fullUrl": "http://152.38.3.250:8080/fhir/Observation/08748276-a839-4512-a79d-8f203b520c88",
            "resource": {
                "resourceType": "Observation",
                "id": "08748276-a839-4512-a79d-8f203b520c88",
                "meta": {
                    "versionId": "1",
                    "lastUpdated": "2023-09-29T04:34:11.634+00:00",
                    "profile": [
                        "https://hapi.fhir.tw/fhir/StructureDefinition/twcr-lf-weight-profile"
                    ]
                },
                "text": {
                    "status": "empty",
                    "div": "<div xmlns=\"http://www.w3.org/1999/xhtml\">目前為空值，可根據使用需求自行產生這筆資料的摘要資訊並填入此欄位</div>"
                },
                "status": "final",
                "code": {
                    "coding": [
                        {
                            "system": "https://loinc.org",
                            "code": "29463-7",
                            "display": "Body Weight"
                        }
                    ]
                },
                "subject": {
                    "reference": "Patient/5a621405-06ca-4b2f-84a8-6b6149c8631a"
                },
                "encounter": {
                    "reference": "Encounter/84a6117f-f30f-461e-97a4-2c643d207c24"
                },
                "valueQuantity": {
                    "value": 999,
                    "unit": "kg",
                    "system": "https://unitsofmeasure.org",
                    "code": "kg"
                }
            }
        }
    ]
}