{
    "resourceType": "Bundle",
    "id": "6b40cc5b-c071-4d09-a933-3ede36c77699",
    "identifier": {
        "system": "https://www.cdc.gov.tw/",
        "value": "TWCR-LF-2023-09-16T18:24:12+08:00"
    },
    "type": "document",
    "timestamp": "2023-09-16T18:24:12+08:00",
    "entry": [
        {
            "resource": {
                "resourceType": "Composition",
                "id": "8af8d7c5-ade0-4531-ab73-e0b0fe0dc7be",
                "meta": {
                    "profile": [
                        "https://hapi.fhir.tw/fhir/StructureDefinition/twcr-lf-composition-profile"
                    ]
                },
                "text": {
                    "status": "generated",
                    "div": "<div xmlns=\"http://www.w3.org/1999/xhtml\"><p><b>Generated Narrative: Composition</b><a name=\"CompositionExample\"> </a></p><div style=\"display: inline-block; background-color: #d9e0e7; padding: 6px; margin: 4px; border: 1px solid #8da1b4; border-radius: 5px; line-height: 60%\"><p style=\"margin-bottom: 0px\">Resource Composition &quot;CompositionExample&quot; </p><p style=\"margin-bottom: 0px\">Profile: <a href=\"StructureDefinition-twcr-sf-composition-profile.html\">Composition</a></p></div><p><b>status</b>: final</p><p><b>type</b>: Cancer event report <span style=\"background: LightGoldenRodYellow; margin: 4px; border: 1px solid khaki\"> (<a href=\"https://loinc.org/\">LOINC</a>#72134-0)</span></p><p><b>date</b>: 2022-07-12 14:30:00+0800</p><p><b>author</b>: </p><ul><li><a href=\"Organization-OrganizationExample.html\">Organization/OrganizationExample</a></li><li><a href=\"Practitioner-PractitionerExample.html\">Practitioner/PractitionerExample</a></li></ul><p><b>title</b>: 癌症登記短表</p></div>"
                },
                "status": "final",
                "type": {
                    "coding": [
                        {
                            "system": "http://loinc.org",
                            "code": "72134-0",
                            "display": "Cancer event report"
                        }
                    ],
                    "subject": {
                        "reference": "urn:uuid:c5ff88a5-6c8f-4c3b-ba78-5a2e79c0c096"
                    },
                    "date": "2023-09-16T18:24:12+08:00",
                    "author": [
                        {
                            "reference": "urn:uuid:80b0528d-67c8-4216-a9c3-bcadbe4cf1fb"
                        },
                        {
                            "reference": "urn:uuid:91391c04-4a8c-4fc0-ae94-77b8008b0462"
                        }
                    ],
                    "title": "Cancer Registry Short Form",
                    "section": {
                        "sectionCancerConfirmation": {
                            "title": "The section of CancerConfirmation",
                            "code": {
                                "coding": [
                                    {
                                        "system": "http://snomed.info/sct",
                                        "code": "395099008",
                                        "display": "Cancer confirmed (situation)"
                                    }
                                ]
                            },
                            "entry": [
                                {
                                    "reference": "urn:uuid:f284f9d1-1aec-4df1-8048-b14fb730b948"
                                },
                                {
                                    "reference": "urn:uuid:8ccfd299-cd2c-4c4d-b19f-bb1f6a9bae4a"
                                },
                                {
                                    "reference": "urn:uuid:7213cbbb-7dab-497d-b972-dd1293c99fd4"
                                },
                                {
                                    "reference": "urn:uuid:09080ae0-c994-4488-99b4-45d820e4e898"
                                },
                                {
                                    "reference": "urn:uuid:16dbf4a2-b669-44c2-862f-fad0b35a04e4"
                                },
                                {
                                    "reference": "urn:uuid:e97a99b5-dfed-4cab-8f26-fd6941bcb9c0"
                                },
                                {
                                    "reference": "urn:uuid:5e85d9a3-15ec-4025-9f67-d2a23f5d89b3"
                                },
                                {
                                    "reference": "urn:uuid:8ad64c0d-2720-4c6e-bd6c-96cc4e2d962f"
                                },
                                {
                                    "reference": "urn:uuid:37a81be4-f49a-43fd-ab55-6c17327af42a"
                                },
                                {
                                    "reference": "urn:uuid:c0ba42f6-9d47-4279-8119-7c09acd7b058"
                                },
                                {
                                    "reference": "urn:uuid:4b33a05d-b58f-4911-a2fe-8c646bc1a9cd"
                                },
                                {
                                    "reference": "urn:uuid:2901ee84-3eef-4db6-9dcd-439ca9efee10"
                                }
                            ]
                        },
                        "sectionStageOfInitialDiagnosis": {
                            "title": "The section of StageOfInitialDiagnosis",
                            "code": {
                                "coding": [
                                    {
                                        "system": "https://hapi.fhir.tw/fhir/CodeSystem/logical-model-codesystem",
                                        "code": "StageOfInitialDiagnosisOfCancer",
                                        "display": "StageOfInitialDiagnosisOfCancer"
                                    }
                                ]
                            },
                            "entry": [
                                {
                                    "reference": "urn:uuid:8555fb18-0e5a-4ca3-84d1-094ae22e5db8"
                                },
                                {
                                    "reference": "urn:uuid:b3cc4483-6475-4175-8108-1712052cb29d"
                                },
                                {
                                    "reference": "urn:uuid:8c76bfbb-d575-49d8-ae73-ad4fa33cbdf1"
                                },
                                {
                                    "reference": "urn:uuid:310c0275-be86-4313-85cd-71ea9f5b4c66"
                                },
                                {
                                    "reference": "urn:uuid:8f98dbff-b7a1-45f8-8309-d9917039f366"
                                },
                                {
                                    "reference": "urn:uuid:cdc7019c-055f-4139-83af-e130deed3f28"
                                },
                                {
                                    "reference": "urn:uuid:f6fb15ba-6698-49ce-9f2a-02606b00b527"
                                },
                                {
                                    "reference": "urn:uuid:0f172e93-5e88-409c-be69-7c9a205c38d4"
                                },
                                {
                                    "reference": "urn:uuid:6b11daa4-aae5-45cf-ba63-45817473af24"
                                },
                                {
                                    "reference": "urn:uuid:079d9716-b549-4158-9004-894493bf31f2"
                                },
                                {
                                    "reference": "urn:uuid:0d0ea630-998d-4d12-9803-e3c57ea14192"
                                },
                                {
                                    "reference": "urn:uuid:4de99bfc-0bee-499b-94c1-47d09eafc780"
                                },
                                {
                                    "reference": "urn:uuid:0e8a8fc0-a2e1-4f26-8d1d-6f0425837252"
                                },
                                {
                                    "reference": "urn:uuid:eb8b4da3-5331-4716-99ae-2e622a4cdb13"
                                }
                            ]
                        },
                        "sectionFirstCourseOfTreatment": {
                            "title": "The section of FirstCourseOfTreatment",
                            "code": {
                                "coding": [
                                    {
                                        "system": "http://snomed.info/sct",
                                        "code": "708255002",
                                        "display": "First line treatment (procedure)"
                                    }
                                ]
                            },
                            "entry": [
                                {
                                    "reference": "urn:uuid:90945f88-0d80-472e-b788-f76b731b5f48"
                                },
                                {
                                    "reference": "urn:uuid:f3602cf5-1f92-45da-8547-41a2f3f699b1"
                                },
                                {
                                    "reference": "urn:uuid:b436ff99-ee48-4c91-8c0b-86e4de9a1905"
                                },
                                {
                                    "reference": "urn:uuid:95e5c4bf-f0e9-4266-8a0f-167f7c7a22ea"
                                },
                                {
                                    "reference": "urn:uuid:0ab09ae4-e3aa-4b42-8609-37575099e3e2"
                                },
                                {
                                    "reference": "urn:uuid:a43d7bc9-5585-4dbc-be62-8522c885e9e0"
                                },
                                {
                                    "reference": "urn:uuid:76dffe52-8cc6-48a2-9abd-5a5f50d8ac4e"
                                },
                                {
                                    "reference": "urn:uuid:7a9cd423-8968-40c1-b881-560ce15b3869"
                                },
                                {
                                    "reference": "urn:uuid:896fc8cb-afdc-4821-a0be-d83d49023542"
                                },
                                {
                                    "reference": "urn:uuid:b9616f8a-651e-4f4c-bf16-9724d3e5b6f4"
                                },
                                {
                                    "reference": "urn:uuid:26122caf-5acf-487f-ac41-1062ab612a57"
                                },
                                {
                                    "reference": "urn:uuid:7c86ba63-2984-45b1-8169-fa53a5228619"
                                },
                                {
                                    "reference": "urn:uuid:09d48fed-5bb7-4521-b141-6d78deec6bed"
                                },
                                {
                                    "reference": "urn:uuid:1826aa67-16b7-472f-9a3e-8938104fd751"
                                },
                                {
                                    "reference": "urn:uuid:bda8dee6-fbda-4d34-8509-f14115bb0a63"
                                },
                                {
                                    "reference": "urn:uuid:1d5c5d91-b151-49d0-acac-c1c4c70ed817"
                                },
                                {
                                    "reference": "urn:uuid:84214b35-5ac6-4af2-8b5f-01740034ac6f"
                                },
                                {
                                    "reference": "urn:uuid:e0152c01-e22d-439b-adb8-87263ee49164"
                                },
                                {
                                    "reference": "urn:uuid:86d4bc60-1141-4db3-a4fa-cb76347e35c5"
                                },
                                {
                                    "reference": "urn:uuid:aa9b00f8-e668-4a64-9f21-3072b5eae5fa"
                                },
                                {
                                    "reference": "urn:uuid:0da2a513-0dda-497d-9c07-9c17ea952962"
                                },
                                {
                                    "reference": "urn:uuid:f7bf38fd-7a3f-4dc6-a978-e25a047eaf2b"
                                },
                                {
                                    "reference": "urn:uuid:cb3b349b-ce41-4ed1-83a4-a338c20a02ec"
                                },
                                {
                                    "reference": "urn:uuid:2654317b-e996-4f68-8096-0c57831e8c3b"
                                },
                                {
                                    "reference": "urn:uuid:92a0da68-1447-41f7-8610-72880a982237"
                                },
                                {
                                    "reference": "urn:uuid:3217a2b4-3537-40bb-ad72-42c182334534"
                                },
                                {
                                    "reference": "urn:uuid:18484ec5-8d78-4508-89f0-375d7067b8ab"
                                },
                                {
                                    "reference": "urn:uuid:690f3f6d-0f81-4a66-a70e-40a467a88d54"
                                },
                                {
                                    "reference": "urn:uuid:0d3ed1f8-d783-404b-8720-4815e41484df"
                                }
                            ]
                        },
                        "sectionOtherFactors": {
                            "title": "The section of OtherFactors",
                            "code": {
                                "coding": [
                                    {
                                        "system": "https://hapi.fhir.tw/fhir/CodeSystem/logical-model-codesystem",
                                        "code": "OtherFactors",
                                        "display": "OtherFactors"
                                    }
                                ]
                            },
                            "entry": [
                                {
                                    "reference": "urn:uuid:c4a646c8-f342-4c97-a66d-5ee022770b02"
                                },
                                {
                                    "reference": "urn:uuid:ee1cff3d-bc46-4e4a-9aa4-5cfee3e82be7"
                                },
                                {
                                    "reference": "urn:uuid:7547051f-cc71-43b4-be97-17ab520ba8c6"
                                },
                                {
                                    "reference": "urn:uuid:254917e6-aeaa-4532-ab21-4001247bc710"
                                },
                                {
                                    "reference": "urn:uuid:f7134fa7-444c-4057-b09b-17943700dda8"
                                },
                                {
                                    "reference": "urn:uuid:13246b32-3033-451c-96b4-37af48aeb180"
                                }
                            ]
                        },
                        "sectionOutcome": {
                            "title": "The section of Outcome",
                            "code": {
                                "coding": [
                                    {
                                        "system": "http://loinc.org",
                                        "code": "21976-6",
                                        "display": "Cancer outcome status"
                                    }
                                ]
                            },
                            "entry": {
                                "reference": "urn:uuid:600ade9c-acae-4cb2-91cb-ff6507022bfe"
                            }
                        },
                        "sectionSSF": {
                            "title": "The section of SSF",
                            "code": {
                                "coding": [
                                    {
                                        "system": "https://hapi.fhir.tw/fhir/CodeSystem/logical-model-codesystem",
                                        "code": "SSF",
                                        "display": "Site-Specific Factor"
                                    }
                                ]
                            },
                            "entry": [
                                {
                                    "reference": "urn:uuid:05675f84-1ae6-492f-832d-ad891e8c8d30"
                                },
                                {
                                    "reference": "urn:uuid:7f77bae0-d864-4af2-a6b8-b408580ebf9f"
                                },
                                {
                                    "reference": "urn:uuid:914843ce-35d6-4736-839b-0c860e7aa8ba"
                                },
                                {
                                    "reference": "urn:uuid:0424dcc5-543a-4807-9219-b6069e1594c2"
                                },
                                {
                                    "reference": "urn:uuid:e344b46a-0cdb-4ddf-80e9-8f98e21b814b"
                                },
                                {
                                    "reference": "urn:uuid:ae077367-7188-4b40-b21d-ead350fee9cd"
                                },
                                {
                                    "reference": "urn:uuid:cd27d884-4dca-4af0-b69c-f2c4e3bf2a47"
                                },
                                {
                                    "reference": "urn:uuid:9c7ecb35-7086-4ad9-b293-5be6799eab8f"
                                },
                                {
                                    "reference": "urn:uuid:b2f3e4f6-863b-48c9-a2c5-8be9ea851a7b"
                                },
                                {
                                    "reference": "urn:uuid:2b8cf845-b9e9-4e02-8e4c-d10b0aabf4f5"
                                }
                            ]
                        }
                    }
                }
            }
        },
        {
            "resource": {
                "resourceType": "Organization",
                "id": "80b0528d-67c8-4216-a9c3-bcadbe4cf1fb",
                "meta": {
                    "versionId": "1",
                    "lastUpdated": "2023-09-15T08:07:32.215+00:00",
                    "profile": [
                        "https://hapi.fhir.tw/fhir/StructureDefinition/twcr-lf-organization-profile"
                    ]
                },
                "text": {
                    "status": "empty",
                    "div": "<div xmlns=\"http://www.w3.org/1999/xhtml\">目前為空值，可根據使用需求自行產生這筆資料的摘要資訊並填入此欄位</div>"
                },
                "identifier": [
                    {
                        "value": "0000016"
                    }
                ]
            }
        },
        {
            "resource": {
                "resourceType": "Patient",
                "id": "c5ff88a5-6c8f-4c3b-ba78-5a2e79c0c096",
                "meta": {
                    "versionId": "1",
                    "lastUpdated": "2023-09-15T13:38:01.157+00:00",
                    "profile": [
                        "https://hapi.fhir.tw/fhir/StructureDefinition/twcr-lf-patient-profile"
                    ]
                },
                "text": {
                    "status": "empty",
                    "div": "<div xmlns=\"http://www.w3.org/1999/xhtml\">目前為空值，可根據使用需求自行產生這筆資料的摘要資訊並填入此欄位</div>"
                },
                "identifier": [
                    {
                        "type": {
                            "coding": [
                                {
                                    "system": "http://terminology.hl7.org/CodeSystem/v2-0203",
                                    "code": "MR",
                                    "display": "Medical record number"
                                }
                            ]
                        },
                        "system": "https://www.vghtpe.gov.tw/Index.action",
                        "value": "A01112"
                    }
                ],
                "name": [
                    {
                        "text": "許○○"
                    }
                ],
                "gender": "female",
                "birthDate": "1956-11-20",
                "deceasedBoolean": true,
                "address": [
                    {
                        "postalCode": "3128"
                    }
                ],
                "managingOrganization": {
                    "reference": "Organization/80b0528d-67c8-4216-a9c3-bcadbe4cf1fb"
                }
            }
        },
        {
            "resource": {
                "resourceType": "Practitioner",
                "id": "91391c04-4a8c-4fc0-ae94-77b8008b0462",
                "meta": {
                    "versionId": "1",
                    "lastUpdated": "2023-09-15T13:38:01.247+00:00",
                    "profile": [
                        "https://hapi.fhir.tw/fhir/StructureDefinition/twcr-lf-practitioner-profile"
                    ]
                },
                "text": {
                    "status": "empty",
                    "div": "<div xmlns=\"http://www.w3.org/1999/xhtml\">目前為空值，可根據使用需求自行產生這筆資料的摘要資訊並填入此欄位</div>"
                },
                "identifier": [
                    {
                        "system": "http://www.moi.gov.tw/",
                        "value": "099A0059"
                    }
                ]
            }
        },
        {
            "resource": {
                "resourceType": "Encounter",
                "id": "f284f9d1-1aec-4df1-8048-b14fb730b948",
                "meta": {
                    "versionId": "1",
                    "lastUpdated": "2023-09-15T13:38:01.339+00:00",
                    "profile": [
                        "https://hapi.fhir.tw/fhir/StructureDefinition/twcr-lf-encounter-profile"
                    ]
                },
                "text": {
                    "status": "empty",
                    "div": "<div xmlns=\"http://www.w3.org/1999/xhtml\">目前為空值，可根據使用需求自行產生這筆資料的摘要資訊並填入此欄位</div>"
                },
                "status": "finished",
                "class": {
                    "system": "http://terminology.hl7.org/CodeSystem/v3-ActCode",
                    "code": "AMB",
                    "display": "ambulatory"
                },
                "period": {
                    "start": "2017-06-22"
                }
            }
        },
        {
            "resource": {
                "resourceType": "Condition",
                "id": "13246b32-3033-451c-96b4-37af48aeb180",
                "meta": {
                    "versionId": "1",
                    "lastUpdated": "2023-09-15T14:31:57.565+00:00",
                    "profile": [
                        "https://hapi.fhir.tw/fhir/StructureDefinition/twcr-lf-assessment-of-performance-before-treatment-profile"
                    ]
                },
                "text": {
                    "status": "empty",
                    "div": "<div xmlns=\"http://www.w3.org/1999/xhtml\">目前為空值，可根據使用需求自行產生這筆資料的摘要資訊並填入此欄位</div>"
                },
                "subject": {
                    "reference": "Patient/c5ff88a5-6c8f-4c3b-ba78-5a2e79c0c096"
                }
            }
        },
        {
            "resource": {
                "resourceType": "Observation",
                "id": "254917e6-aeaa-4532-ab21-4001247bc710",
                "meta": {
                    "versionId": "1",
                    "lastUpdated": "2023-09-15T14:33:55.658+00:00",
                    "profile": [
                        "https://hapi.fhir.tw/fhir/StructureDefinition/twcr-lf-betel-nut-chewing-behavior-profile"
                    ]
                },
                "text": {
                    "status": "empty",
                    "div": "<div xmlns=\"http://www.w3.org/1999/xhtml\">目前為空值，可根據使用需求自行產生這筆資料的摘要資訊並填入此欄位</div>"
                },
                "status": "final",
                "subject": {
                    "reference": "Patient/c5ff88a5-6c8f-4c3b-ba78-5a2e79c0c096"
                },
                "component": [
                    {
                        "code": {
                            "coding": [
                                {
                                    "system": "https://mitw.dicom.org.tw/IG/TWCR/CodeSystem/betel-nut-chewing-behavior-codesystem",
                                    "code": "quit",
                                    "display": "戒嚼檳榔年"
                                }
                            ]
                        },
                        "valueCodeableConcept": {
                            "coding": [
                                {
                                    "system": "https://mitw.dicom.org.tw/IG/TWCR/CodeSystem/betel-nut-chewing-quit-codesystem",
                                    "code": "99",
                                    "display": "病歷未記載或戒嚼檳榔狀態完全不詳者"
                                }
                            ]
                        }
                    }
                ]
            }
        },
        {
            "resource": {
                "resourceType": "Procedure",
                "id": "86d4bc60-1141-4db3-a4fa-cb76347e35c5",
                "meta": {
                    "versionId": "1",
                    "lastUpdated": "2023-09-15T14:33:55.728+00:00",
                    "profile": [
                        "https://hapi.fhir.tw/fhir/StructureDefinition/twcr-lf-chemotherapy-profile"
                    ]
                },
                "text": {
                    "status": "empty",
                    "div": "<div xmlns=\"http://www.w3.org/1999/xhtml\">目前為空值，可根據使用需求自行產生這筆資料的摘要資訊並填入此欄位</div>"
                },
                "status": "completed",
                "category": {
                    "coding": [
                        {
                            "system": "https://mitw.dicom.org.tw/IG/TWCR/CodeSystem/procedure-code-codesystem",
                            "code": "Chemotherapy",
                            "display": "申報醫院化學治療"
                        }
                    ]
                },
                "subject": {
                    "reference": "Patient/c5ff88a5-6c8f-4c3b-ba78-5a2e79c0c096"
                },
                "performedPeriod": {
                    "start": "2002-11-11"
                }
            }
        },
        {
            "resource": {
                "resourceType": "Procedure",
                "id": "aa9b00f8-e668-4a64-9f21-3072b5eae5fa",
                "meta": {
                    "versionId": "1",
                    "lastUpdated": "2023-09-15T14:33:55.808+00:00",
                    "profile": [
                        "https://hapi.fhir.tw/fhir/StructureDefinition/twcr-lf-chemotherapy-at-other-facility-profile"
                    ]
                },
                "text": {
                    "status": "empty",
                    "div": "<div xmlns=\"http://www.w3.org/1999/xhtml\">目前為空值，可根據使用需求自行產生這筆資料的摘要資訊並填入此欄位</div>"
                },
                "status": "completed",
                "category": {
                    "coding": [
                        {
                            "system": "https://mitw.dicom.org.tw/IG/TWCR/CodeSystem/procedure-code-codesystem",
                            "code": "OtherFacilityChemotherapy",
                            "display": "外院化學治療"
                        }
                    ]
                },
                "subject": {
                    "reference": "Patient/c5ff88a5-6c8f-4c3b-ba78-5a2e79c0c096"
                }
            }
        },
        {
            "resource": {
                "resourceType": "Observation",
                "id": "8f98dbff-b7a1-45f8-8309-d9917039f366",
                "meta": {
                    "versionId": "1",
                    "lastUpdated": "2023-09-15T14:33:55.897+00:00",
                    "profile": [
                        "https://hapi.fhir.tw/fhir/StructureDefinition/twcr-lf-clinical-m-profile"
                    ]
                },
                "text": {
                    "status": "empty",
                    "div": "<div xmlns=\"http://www.w3.org/1999/xhtml\">目前為空值，可根據使用需求自行產生這筆資料的摘要資訊並填入此欄位</div>"
                },
                "code": {
                    "coding": [
                        {
                            "system": "http://loinc.org",
                            "code": "21907-1",
                            "display": "Distant metastases.clinical [Class] Cancer"
                        }
                    ]
                },
                "subject": {
                    "reference": "Patient/c5ff88a5-6c8f-4c3b-ba78-5a2e79c0c096"
                }
            }
        },
        {
            "resource": {
                "resourceType": "Observation",
                "id": "310c0275-be86-4313-85cd-71ea9f5b4c66",
                "meta": {
                    "versionId": "1",
                    "lastUpdated": "2023-09-15T14:33:55.960+00:00",
                    "profile": [
                        "https://hapi.fhir.tw/fhir/StructureDefinition/twcr-lf-clinical-n-profile"
                    ]
                },
                "text": {
                    "status": "empty",
                    "div": "<div xmlns=\"http://www.w3.org/1999/xhtml\">目前為空值，可根據使用需求自行產生這筆資料的摘要資訊並填入此欄位</div>"
                },
                "status": "final",
                "code": {
                    "coding": [
                        {
                            "system": "http://loinc.org",
                            "code": "21906-3",
                            "display": "Regional lymph nodes.clinical [Class] Cancer"
                        }
                    ]
                },
                "subject": {
                    "reference": "Patient/c5ff88a5-6c8f-4c3b-ba78-5a2e79c0c096"
                }
            }
        },
        {
            "resource": {
                "resourceType": "Observation",
                "id": "cdc7019c-055f-4139-83af-e130deed3f28",
                "meta": {
                    "versionId": "1",
                    "lastUpdated": "2023-09-15T14:33:56.039+00:00",
                    "profile": [
                        "https://hapi.fhir.tw/fhir/StructureDefinition/twcr-lf-clinical-other-staging-profile"
                    ]
                },
                "text": {
                    "status": "empty",
                    "div": "<div xmlns=\"http://www.w3.org/1999/xhtml\">目前為空值，可根據使用需求自行產生這筆資料的摘要資訊並填入此欄位</div>"
                },
                "status": "final",
                "code": {
                    "coding": [
                        {
                            "system": "http://loinc.org",
                            "code": "21908-9",
                            "display": "Stage group.clinical Cancer"
                        }
                    ]
                },
                "subject": {
                    "reference": "Patient/c5ff88a5-6c8f-4c3b-ba78-5a2e79c0c096"
                },
                "valueCodeableConcept": {
                    "coding": [
                        {
                            "system": "https://mitw.dicom.org.tw/IG/TWCR/CodeSystem/clinical-other-staging-codesystem",
                            "code": "0000",
                            "display": "無使用其他分期系統"
                        }
                    ]
                },
                "method": {
                    "coding": [
                        {
                            "system": "https://mitw.dicom.org.tw/IG/TWCR/CodeSystem/other-staging-system-codesystem",
                            "code": "code",
                            "display": "display"
                        }
                    ]
                }
            }
        },
        {
            "resource": {
                "resourceType": "Observation",
                "id": "f6fb15ba-6698-49ce-9f2a-02606b00b527",
                "meta": {
                    "versionId": "1",
                    "lastUpdated": "2023-09-15T14:33:56.118+00:00",
                    "profile": [
                        "https://hapi.fhir.tw/fhir/StructureDefinition/twcr-lf-clinical-stage-profile"
                    ]
                },
                "text": {
                    "status": "empty",
                    "div": "<div xmlns=\"http://www.w3.org/1999/xhtml\">目前為空值，可根據使用需求自行產生這筆資料的摘要資訊並填入此欄位</div>"
                },
                "status": "final",
                "code": {
                    "coding": [
                        {
                            "system": "http://loinc.org",
                            "code": "21908-9",
                            "display": "Stage group.clinical Cancer"
                        }
                    ]
                },
                "subject": {
                    "reference": "Patient/c5ff88a5-6c8f-4c3b-ba78-5a2e79c0c096"
                },
                "valueCodeableConcept": {
                    "coding": [
                        {
                            "system": "https://mitw.dicom.org.tw/IG/TWCR/CodeSystem/clinical-stage-group-codesystem",
                            "code": "1",
                            "display": "Stage I"
                        }
                    ]
                }
            }
        },
        {
            "resource": {
                "resourceType": "Observation",
                "id": "0f172e93-5e88-409c-be69-7c9a205c38d4",
                "meta": {
                    "versionId": "1",
                    "lastUpdated": "2023-09-15T14:33:56.200+00:00",
                    "profile": [
                        "https://hapi.fhir.tw/fhir/StructureDefinition/twcr-lf-clinical-stage-prefix-suffix-description-profile"
                    ]
                },
                "text": {
                    "status": "empty",
                    "div": "<div xmlns=\"http://www.w3.org/1999/xhtml\">目前為空值，可根據使用需求自行產生這筆資料的摘要資訊並填入此欄位</div>"
                },
                "status": "final",
                "code": {
                    "coding": [
                        {
                            "system": "http://loinc.org",
                            "code": "21909-7",
                            "display": "Descriptor.clinical Cancer Narrative"
                        }
                    ]
                },
                "subject": {
                    "reference": "Patient/c5ff88a5-6c8f-4c3b-ba78-5a2e79c0c096"
                }
            }
        },
        {
            "resource": {
                "resourceType": "Observation",
                "id": "8c76bfbb-d575-49d8-ae73-ad4fa33cbdf1",
                "meta": {
                    "versionId": "1",
                    "lastUpdated": "2023-09-15T14:33:56.290+00:00",
                    "profile": [
                        "https://hapi.fhir.tw/fhir/StructureDefinition/twcr-lf-clinical-t-profile"
                    ]
                },
                "text": {
                    "status": "empty",
                    "div": "<div xmlns=\"http://www.w3.org/1999/xhtml\">目前為空值，可根據使用需求自行產生這筆資料的摘要資訊並填入此欄位</div>"
                },
                "status": "final",
                "code": {
                    "coding": [
                        {
                            "system": "http://loinc.org",
                            "code": "21905-5",
                            "display": "Primary tumor.clinical [Class] Cancer"
                        }
                    ]
                },
                "subject": {
                    "reference": "Patient/c5ff88a5-6c8f-4c3b-ba78-5a2e79c0c096"
                }
            }
        },
        {
            "resource": {
                "resourceType": "Condition",
                "id": "8ccfd299-cd2c-4c4d-b19f-bb1f6a9bae4a",
                "meta": {
                    "versionId": "1",
                    "lastUpdated": "2023-09-15T13:53:32.740+00:00",
                    "profile": [
                        "https://hapi.fhir.tw/fhir/StructureDefinition/twcr-lf-condition-profile"
                    ]
                },
                "text": {
                    "status": "empty",
                    "div": "<div xmlns=\"http://www.w3.org/1999/xhtml\">目前為空值，可根據使用需求自行產生這筆資料的摘要資訊並填入此欄位</div>"
                },
                "category": [
                    {
                        "coding": [
                            {
                                "system": "https://mitw.dicom.org.tw/IG/TWCR/CodeSystem/class-of-treatment-status-codesystem",
                                "code": "2",
                                "display": "未於申報醫院接受任何首次療程：(1)僅於他院接受首次療程 (2)於申報醫院診斷，但至他院接受後續診療，其首次療程內容不詳 (3)於他院診斷未治療，至申報醫院諮詢第二意見\r\n/主要癌症治療計畫由他院規劃：(1)接受首次療程後維持輔助性荷爾蒙治療(maintenance adjuvant hormonal therapy)或維持性口服性化療 (2)因為原轉介醫院放射治療設備不足，接受委託局部追加放射治療，且放射治療模式為其他放射療法 (Other RT)，如brachytherapy, radiosurgery, proton...等 (3)因為原轉介醫院放射治療設備在療程中途故障，為避免延誤療程，接受委託進行部分放射治療 (4)維持性口服性化療"
                            }
                        ]
                    }
                ],
                "code": {
                    "coding": [
                        {
                            "system": "https://mitw.dicom.org.tw/IG/TWCR/CodeSystem/sequence-number-codesystem",
                            "code": "01",
                            "display": "個案一生中第 1 個惡性腫瘤或原位癌"
                        }
                    ]
                },
                "subject": {
                    "reference": "Patient/c5ff88a5-6c8f-4c3b-ba78-5a2e79c0c096"
                },
                "encounter": {
                    "reference": "Encounter/f284f9d1-1aec-4df1-8048-b14fb730b948"
                },
                "onsetAge": {
                    "value": 60,
                    "system": "http://unitsofmeasure.org",
                    "code": "a"
                },
                "evidence": [
                    {
                        "code": [
                            {
                                "coding": [
                                    {
                                        "system": "https://mitw.dicom.org.tw/IG/TWCR/CodeSystem/diagnostic-confirmation-codesystem",
                                        "code": "7",
                                        "display": "放射線或其他影像學檢查診斷為癌症，但未經顯微鏡檢證實"
                                    }
                                ]
                            }
                        ]
                    }
                ]
            }
        },
        {
            "resource": {
                "resourceType": "Condition",
                "id": "7213cbbb-7dab-497d-b972-dd1293c99fd4",
                "meta": {
                    "versionId": "1",
                    "lastUpdated": "2023-09-15T14:37:22.819+00:00",
                    "profile": [
                        "https://hapi.fhir.tw/fhir/StructureDefinition/twcr-lf-date-of-diagnosis-condition-profile"
                    ]
                },
                "text": {
                    "status": "empty",
                    "div": "<div xmlns=\"http://www.w3.org/1999/xhtml\">目前為空值，可根據使用需求自行產生這筆資料的摘要資訊並填入此欄位</div>"
                },
                "subject": {
                    "reference": "Patient/c5ff88a5-6c8f-4c3b-ba78-5a2e79c0c096"
                },
                "onsetPeriod": {
                    "start": "2017-06-22"
                }
            }
        },
        {
            "resource": {
                "resourceType": "Condition",
                "id": "09080ae0-c994-4488-99b4-45d820e4e898",
                "meta": {
                    "versionId": "1",
                    "lastUpdated": "2023-09-15T14:37:22.886+00:00",
                    "profile": [
                        "https://hapi.fhir.tw/fhir/StructureDefinition/twcr-lf-date-of-microscopic-confirmation-profile"
                    ]
                },
                "text": {
                    "status": "empty",
                    "div": "<div xmlns=\"http://www.w3.org/1999/xhtml\">目前為空值，可根據使用需求自行產生這筆資料的摘要資訊並填入此欄位</div>"
                },
                "subject": {
                    "reference": "Patient/c5ff88a5-6c8f-4c3b-ba78-5a2e79c0c096"
                },
                "onsetDateTime": "2002-11-11"
            }
        },
        {
            "resource": {
                "resourceType": "Observation",
                "id": "f7134fa7-444c-4057-b09b-17943700dda8",
                "meta": {
                    "versionId": "1",
                    "lastUpdated": "2023-09-15T14:37:22.970+00:00",
                    "profile": [
                        "https://hapi.fhir.tw/fhir/StructureDefinition/twcr-lf-drinking-behavior-profile"
                    ]
                },
                "text": {
                    "status": "empty",
                    "div": "<div xmlns=\"http://www.w3.org/1999/xhtml\">目前為空值，可根據使用需求自行產生這筆資料的摘要資訊並填入此欄位</div>"
                },
                "status": "final",
                "subject": {
                    "reference": "Patient/c5ff88a5-6c8f-4c3b-ba78-5a2e79c0c096"
                },
                "valueCodeableConcept": {
                    "coding": [
                        {
                            "system": "https://mitw.dicom.org.tw/IG/TWCR/CodeSystem/drinking-behavior-codesystem",
                            "code": "999",
                            "display": "病歷未記載或不詳"
                        }
                    ]
                }
            }
        },
        {
            "resource": {
                "resourceType": "Procedure",
                "id": "1d5c5d91-b151-49d0-acac-c1c4c70ed817",
                "meta": {
                    "versionId": "1",
                    "lastUpdated": "2023-09-15T14:37:23.063+00:00",
                    "profile": [
                        "https://hapi.fhir.tw/fhir/StructureDefinition/twcr-lf-ebrt-technique-profile"
                    ]
                },
                "text": {
                    "status": "empty",
                    "div": "<div xmlns=\"http://www.w3.org/1999/xhtml\">目前為空值，可根據使用需求自行產生這筆資料的摘要資訊並填入此欄位</div>"
                },
                "status": "completed",
                "category": {
                    "coding": [
                        {
                            "system": "https://mitw.dicom.org.tw/IG/TWCR/CodeSystem/procedure-code-codesystem",
                            "code": "EBRTTechnique",
                            "display": "體外放射治療"
                        }
                    ]
                },
                "subject": {
                    "reference": "Patient/c5ff88a5-6c8f-4c3b-ba78-5a2e79c0c096"
                }
            }
        },
        {
            "resource": {
                "resourceType": "Procedure",
                "id": "90945f88-0d80-472e-b788-f76b731b5f48",
                "meta": {
                    "versionId": "1",
                    "lastUpdated": "2023-09-15T14:37:23.151+00:00",
                    "profile": [
                        "https://hapi.fhir.tw/fhir/StructureDefinition/twcr-lf-first-course-of-treatment-profile"
                    ]
                },
                "text": {
                    "status": "empty",
                    "div": "<div xmlns=\"http://www.w3.org/1999/xhtml\">目前為空值，可根據使用需求自行產生這筆資料的摘要資訊並填入此欄位</div>"
                },
                "status": "completed",
                "subject": {
                    "reference": "Patient/c5ff88a5-6c8f-4c3b-ba78-5a2e79c0c096"
                },
                "performedDateTime": "2002-11-11"
            }
        },
        {
            "resource": {
                "resourceType": "Observation",
                "id": "600ade9c-acae-4cb2-91cb-ff6507022bfe",
                "meta": {
                    "versionId": "1",
                    "lastUpdated": "2023-09-15T14:37:23.242+00:00",
                    "profile": [
                        "https://hapi.fhir.tw/fhir/StructureDefinition/twcr-lf-first-recurrence-profile"
                    ]
                },
                "text": {
                    "status": "empty",
                    "div": "<div xmlns=\"http://www.w3.org/1999/xhtml\">目前為空值，可根據使用需求自行產生這筆資料的摘要資訊並填入此欄位</div>"
                },
                "status": "final",
                "code": {
                    "coding": [
                        {
                            "system": "http://loinc.org",
                            "code": "246455001",
                            "display": "Recurrence"
                        }
                    ]
                },
                "subject": {
                    "reference": "Patient/c5ff88a5-6c8f-4c3b-ba78-5a2e79c0c096"
                },
                "valueCodeableConcept": {
                    "coding": [
                        {
                            "system": "https://mitw.dicom.org.tw/IG/TWCR/CodeSystem/tpye-of-first-recurrence-codesystem",
                            "code": "70",
                            "display": "個案癌症確診後從未 disease-free 過。包括：(1)診斷為癌症時即已有遠端轉移 (2)全身性癌症 (3)原發部位不清楚 (4)癌症情況不嚴重尚未加以治療"
                        }
                    ]
                }
            }
        },
        {
            "resource": {
                "resourceType": "Procedure",
                "id": "f3602cf5-1f92-45da-8547-41a2f3f699b1",
                "meta": {
                    "versionId": "1",
                    "lastUpdated": "2023-09-15T14:37:23.333+00:00",
                    "profile": [
                        "https://hapi.fhir.tw/fhir/StructureDefinition/twcr-lf-surgical-procedure-profile"
                    ]
                },
                "text": {
                    "status": "empty",
                    "div": "<div xmlns=\"http://www.w3.org/1999/xhtml\">目前為空值，可根據使用需求自行產生這筆資料的摘要資訊並填入此欄位</div>"
                },
                "status": "completed",
                "category": {
                    "coding": [
                        {
                            "system": "https://mitw.dicom.org.tw/IG/TWCR/CodeSystem/procedure-code-codesystem",
                            "code": "FirstSurgicalProcedure",
                            "display": "首次手術"
                        }
                    ]
                },
                "subject": {
                    "reference": "Patient/c5ff88a5-6c8f-4c3b-ba78-5a2e79c0c096"
                },
                "performedDateTime": "2002-11-11"
            }
        },
        {
            "resource": {
                "resourceType": "Observation",
                "id": "e97a99b5-dfed-4cab-8f26-fd6941bcb9c0",
                "meta": {
                    "versionId": "1",
                    "lastUpdated": "2023-09-15T14:37:23.420+00:00",
                    "profile": [
                        "https://hapi.fhir.tw/fhir/StructureDefinition/twcr-lf-grade-clinical-profile"
                    ]
                },
                "text": {
                    "status": "empty",
                    "div": "<div xmlns=\"http://www.w3.org/1999/xhtml\">目前為空值，可根據使用需求自行產生這筆資料的摘要資訊並填入此欄位</div>"
                },
                "status": "final",
                "subject": {
                    "reference": "Patient/c5ff88a5-6c8f-4c3b-ba78-5a2e79c0c096"
                },
                "valueCodeableConcept": {
                    "coding": [
                        {
                            "system": "https://mitw.dicom.org.tw/IG/TWCR/CodeSystem/grade-clinical-codesystem",
                            "code": "9",
                            "display": "(1)分化/分級不明、病歷未記載 (2)首次治療前未有分級/分化 (3)術後才診斷為癌症"
                        }
                    ]
                }
            }
        },
        {
            "resource": {
                "resourceType": "Observation",
                "id": "5e85d9a3-15ec-4025-9f67-d2a23f5d89b3",
                "meta": {
                    "versionId": "1",
                    "lastUpdated": "2023-09-15T14:37:23.490+00:00",
                    "profile": [
                        "https://hapi.fhir.tw/fhir/StructureDefinition/twcr-lf-grade-clinical-profile"
                    ]
                },
                "text": {
                    "status": "empty",
                    "div": "<div xmlns=\"http://www.w3.org/1999/xhtml\">目前為空值，可根據使用需求自行產生這筆資料的摘要資訊並填入此欄位</div>"
                },
                "status": "final",
                "subject": {
                    "reference": "Patient/c5ff88a5-6c8f-4c3b-ba78-5a2e79c0c096"
                },
                "valueCodeableConcept": {
                    "coding": [
                        {
                            "system": "https://mitw.dicom.org.tw/IG/TWCR/CodeSystem/grade-pathological-codesystem",
                            "code": "9",
                            "display": "(1)分化/分級不明、病歷未記載 (2)首次治療前未有分級/分化 (3)術後才診斷為癌症"
                        }
                    ]
                }
            }
        },
        {
            "resource": {
                "resourceType": "Observation",
                "id": "c4a646c8-f342-4c97-a66d-5ee022770b02",
                "meta": {
                    "versionId": "1",
                    "lastUpdated": "2023-09-15T14:37:23.569+00:00",
                    "profile": [
                        "https://hapi.fhir.tw/fhir/StructureDefinition/twcr-lf-height-profile"
                    ]
                },
                "text": {
                    "status": "empty",
                    "div": "<div xmlns=\"http://www.w3.org/1999/xhtml\">目前為空值，可根據使用需求自行產生這筆資料的摘要資訊並填入此欄位</div>"
                },
                "status": "final",
                "code": {
                    "coding": [
                        {
                            "system": "http://loinc.org",
                            "code": "3137-7",
                            "display": "Body height Measured"
                        }
                    ]
                },
                "subject": {
                    "reference": "Patient/c5ff88a5-6c8f-4c3b-ba78-5a2e79c0c096"
                },
                "valueCodeableConcept": {
                    "coding": [
                        {
                            "system": "https://mitw.dicom.org.tw/IG/TWCR/CodeSystem/height-codesystem",
                            "code": "999",
                            "display": "病歷未記載或不詳"
                        }
                    ]
                }
            }
        },
        {
            "resource": {
                "resourceType": "Procedure",
                "id": "92a0da68-1447-41f7-8610-72880a982237",
                "meta": {
                    "versionId": "1",
                    "lastUpdated": "2023-09-15T14:37:23.637+00:00",
                    "profile": [
                        "https://hapi.fhir.tw/fhir/StructureDefinition/twcr-lf-hematologic-transplant-endocrine-procedure-profile"
                    ]
                },
                "text": {
                    "status": "empty",
                    "div": "<div xmlns=\"http://www.w3.org/1999/xhtml\">目前為空值，可根據使用需求自行產生這筆資料的摘要資訊並填入此欄位</div>"
                },
                "status": "completed",
                "category": {
                    "coding": [
                        {
                            "system": "https://mitw.dicom.org.tw/IG/TWCR/CodeSystem/procedure-code-codesystem",
                            "code": "HematologicTransplantAndEndocrineProcedure",
                            "display": " 骨髓/幹細胞移植或內分泌處置"
                        }
                    ]
                },
                "subject": {
                    "reference": "Patient/c5ff88a5-6c8f-4c3b-ba78-5a2e79c0c096"
                }
            }
        },
        {
            "resource": {
                "resourceType": "Procedure",
                "id": "0da2a513-0dda-497d-9c07-9c17ea952962",
                "meta": {
                    "versionId": "1",
                    "lastUpdated": "2023-09-15T14:37:23.715+00:00",
                    "profile": [
                        "https://hapi.fhir.tw/fhir/StructureDefinition/twcr-lf-hormone-steroid-therapy-profile"
                    ]
                },
                "text": {
                    "status": "empty",
                    "div": "<div xmlns=\"http://www.w3.org/1999/xhtml\">目前為空值，可根據使用需求自行產生這筆資料的摘要資訊並填入此欄位</div>"
                },
                "status": "completed",
                "category": {
                    "coding": [
                        {
                            "system": "https://mitw.dicom.org.tw/IG/TWCR/CodeSystem/procedure-code-codesystem",
                            "code": "HormoneSteroid",
                            "display": "申報醫院荷爾蒙/類固醇治療"
                        }
                    ]
                },
                "subject": {
                    "reference": "Patient/c5ff88a5-6c8f-4c3b-ba78-5a2e79c0c096"
                }
            }
        },
        {
            "resource": {
                "resourceType": "Procedure",
                "id": "f7bf38fd-7a3f-4dc6-a978-e25a047eaf2b",
                "meta": {
                    "versionId": "1",
                    "lastUpdated": "2023-09-15T14:37:23.790+00:00",
                    "profile": [
                        "https://hapi.fhir.tw/fhir/StructureDefinition/twcr-lf-hormone-steroid-therapy-at-other-facility-profile"
                    ]
                },
                "text": {
                    "status": "empty",
                    "div": "<div xmlns=\"http://www.w3.org/1999/xhtml\">目前為空值，可根據使用需求自行產生這筆資料的摘要資訊並填入此欄位</div>"
                },
                "status": "completed",
                "category": {
                    "coding": [
                        {
                            "system": "https://mitw.dicom.org.tw/IG/TWCR/CodeSystem/procedure-code-codesystem",
                            "code": "OtherFacilityHormoneSteroid",
                            "display": "外院荷爾蒙/類固醇治療"
                        }
                    ]
                },
                "subject": {
                    "reference": "Patient/c5ff88a5-6c8f-4c3b-ba78-5a2e79c0c096"
                }
            }
        },
        {
            "resource": {
                "resourceType": "Procedure",
                "id": "cb3b349b-ce41-4ed1-83a4-a338c20a02ec",
                "meta": {
                    "versionId": "1",
                    "lastUpdated": "2023-09-15T14:37:23.848+00:00",
                    "profile": [
                        "https://hapi.fhir.tw/fhir/StructureDefinition/twcr-lf-immunotherapy-profile"
                    ]
                },
                "text": {
                    "status": "empty",
                    "div": "<div xmlns=\"http://www.w3.org/1999/xhtml\">目前為空值，可根據使用需求自行產生這筆資料的摘要資訊並填入此欄位</div>"
                },
                "status": "completed",
                "category": {
                    "coding": [
                        {
                            "system": "https://mitw.dicom.org.tw/IG/TWCR/CodeSystem/procedure-code-codesystem",
                            "code": "Immunotherapy",
                            "display": "申報醫院免疫治療"
                        }
                    ]
                },
                "subject": {
                    "reference": "Patient/c5ff88a5-6c8f-4c3b-ba78-5a2e79c0c096"
                }
            }
        },
        {
            "resource": {
                "resourceType": "Procedure",
                "id": "2654317b-e996-4f68-8096-0c57831e8c3b",
                "meta": {
                    "versionId": "1",
                    "lastUpdated": "2023-09-15T14:37:23.958+00:00",
                    "profile": [
                        "https://hapi.fhir.tw/fhir/StructureDefinition/twcr-lf-immunotherapy-at-other-facility-profile"
                    ]
                },
                "text": {
                    "status": "empty",
                    "div": "<div xmlns=\"http://www.w3.org/1999/xhtml\">目前為空值，可根據使用需求自行產生這筆資料的摘要資訊並填入此欄位</div>"
                },
                "status": "completed",
                "category": {
                    "coding": [
                        {
                            "system": "https://mitw.dicom.org.tw/IG/TWCR/CodeSystem/procedure-code-codesystem",
                            "code": "OtherFacilityTargetedTherapy",
                            "display": "外院標靶治療"
                        }
                    ]
                },
                "subject": {
                    "reference": "Patient/c5ff88a5-6c8f-4c3b-ba78-5a2e79c0c096"
                }
            }
        },
        {
            "resource": {
                "resourceType": "Observation",
                "id": "c0ba42f6-9d47-4279-8119-7c09acd7b058",
                "meta": {
                    "versionId": "1",
                    "lastUpdated": "2023-09-15T14:37:24.053+00:00",
                    "profile": [
                        "https://hapi.fhir.tw/fhir/StructureDefinition/twcr-lf-lymph-vascular-invasion-profile"
                    ]
                },
                "text": {
                    "status": "empty",
                    "div": "<div xmlns=\"http://www.w3.org/1999/xhtml\">目前為空值，可根據使用需求自行產生這筆資料的摘要資訊並填入此欄位</div>"
                },
                "status": "final",
                "code": {
                    "coding": [
                        {
                            "system": "http://loinc.org",
                            "code": "LP100459-9",
                            "display": "Lymph-vascular invasion"
                        }
                    ]
                },
                "subject": {
                    "reference": "Patient/c5ff88a5-6c8f-4c3b-ba78-5a2e79c0c096"
                },
                "valueCodeableConcept": {
                    "coding": [
                        {
                            "system": "https://mitw.dicom.org.tw/IG/TWCR/CodeSystem/lymph-vascular-invasion-codesystem",
                            "code": "8",
                            "display": "不適用。(1)GIST、NETs、High grade dysplasia (severe dysplasia)、原位癌 (2)淋巴瘤及白血病 (3)Plasma cell myeloma (4)中樞神經系統之惡性腫瘤 (5)原發部位不詳個案 (6)原發部位未執行病理檢查或僅細胞學檢查"
                        }
                    ]
                }
            }
        },
        {
            "resource": {
                "resourceType": "Procedure",
                "id": "0ab09ae4-e3aa-4b42-8609-37575099e3e2",
                "meta": {
                    "versionId": "1",
                    "lastUpdated": "2023-09-15T14:37:24.138+00:00",
                    "profile": [
                        "https://hapi.fhir.tw/fhir/StructureDefinition/twcr-lf-minimally-invasive-surgery-profile"
                    ]
                },
                "text": {
                    "status": "empty",
                    "div": "<div xmlns=\"http://www.w3.org/1999/xhtml\">目前為空值，可根據使用需求自行產生這筆資料的摘要資訊並填入此欄位</div>"
                },
                "status": "completed",
                "subject": {
                    "reference": "Patient/c5ff88a5-6c8f-4c3b-ba78-5a2e79c0c096"
                }
            }
        },
        {
            "resource": {
                "resourceType": "Procedure",
                "id": "84214b35-5ac6-4af2-8b5f-01740034ac6f",
                "meta": {
                    "versionId": "1",
                    "lastUpdated": "2023-09-15T14:37:24.227+00:00",
                    "profile": [
                        "https://hapi.fhir.tw/fhir/StructureDefinition/twcr-lf-other-rt-profile"
                    ]
                },
                "text": {
                    "status": "empty",
                    "div": "<div xmlns=\"http://www.w3.org/1999/xhtml\">目前為空值，可根據使用需求自行產生這筆資料的摘要資訊並填入此欄位</div>"
                },
                "extension": [
                    {
                        "url": "https://hapi.fhir.tw/fhir/StructureDefinition/twcr-lf-other-rt-technique-extension",
                        "valueCodeableConcept": {
                            "coding": [
                                {
                                    "system": "https://mitw.dicom.org.tw/IG/TWCR/CodeSystem/procedure-code-codesystem",
                                    "code": "0",
                                    "display": "Error-Could_not_find_any_match_displayValue"
                                }
                            ]
                        }
                    }
                ],
                "status": "completed",
                "category": {
                    "coding": [
                        {
                            "system": "https://mitw.dicom.org.tw/IG/TWCR/CodeSystem/procedure-code-codesystem",
                            "code": "OtherRT",
                            "display": "其他放射治療"
                        }
                    ]
                },
                "subject": {
                    "reference": "Patient/c5ff88a5-6c8f-4c3b-ba78-5a2e79c0c096"
                }
            }
        },
        {
            "resource": {
                "resourceType": "Procedure",
                "id": "0d3ed1f8-d783-404b-8720-4815e41484df",
                "meta": {
                    "versionId": "1",
                    "lastUpdated": "2023-09-15T14:37:24.287+00:00",
                    "profile": [
                        "https://hapi.fhir.tw/fhir/StructureDefinition/twcr-lf-other-treatment-profile"
                    ]
                },
                "text": {
                    "status": "empty",
                    "div": "<div xmlns=\"http://www.w3.org/1999/xhtml\">目前為空值，可根據使用需求自行產生這筆資料的摘要資訊並填入此欄位</div>"
                },
                "status": "completed",
                "category": {
                    "coding": [
                        {
                            "system": "https://mitw.dicom.org.tw/IG/TWCR/CodeSystem/procedure-code-codesystem",
                            "code": "OtherTreatment",
                            "display": "他治療"
                        }
                    ]
                },
                "subject": {
                    "reference": "Patient/c5ff88a5-6c8f-4c3b-ba78-5a2e79c0c096"
                },
                "performedPeriod": {
                    "start": "2002-11-11"
                }
            }
        },
        {
            "resource": {
                "resourceType": "Procedure",
                "id": "690f3f6d-0f81-4a66-a70e-40a467a88d54",
                "meta": {
                    "versionId": "1",
                    "lastUpdated": "2023-09-15T14:37:24.377+00:00",
                    "profile": [
                        "https://hapi.fhir.tw/fhir/StructureDefinition/twcr-lf-palliative-care-profile"
                    ]
                },
                "text": {
                    "status": "empty",
                    "div": "<div xmlns=\"http://www.w3.org/1999/xhtml\">目前為空值，可根據使用需求自行產生這筆資料的摘要資訊並填入此欄位</div>"
                },
                "status": "completed",
                "category": {
                    "coding": [
                        {
                            "system": "https://mitw.dicom.org.tw/IG/TWCR/CodeSystem/procedure-code-codesystem",
                            "code": "PalliativeCare",
                            "display": "申報醫院緩和照護"
                        }
                    ]
                },
                "subject": {
                    "reference": "Patient/c5ff88a5-6c8f-4c3b-ba78-5a2e79c0c096"
                }
            }
        },
        {
            "resource": {
                "resourceType": "Observation",
                "id": "0d0ea630-998d-4d12-9803-e3c57ea14192",
                "meta": {
                    "versionId": "1",
                    "lastUpdated": "2023-09-15T14:37:24.467+00:00",
                    "profile": [
                        "https://hapi.fhir.tw/fhir/StructureDefinition/twcr-lf-pathologic-m-profile"
                    ]
                },
                "text": {
                    "status": "empty",
                    "div": "<div xmlns=\"http://www.w3.org/1999/xhtml\">目前為空值，可根據使用需求自行產生這筆資料的摘要資訊並填入此欄位</div>"
                },
                "status": "final",
                "code": {
                    "coding": [
                        {
                            "system": "http://loinc.org",
                            "code": "21901-4",
                            "display": "Distant metastases.pathology [Class] Cancer"
                        }
                    ]
                },
                "subject": {
                    "reference": "Patient/c5ff88a5-6c8f-4c3b-ba78-5a2e79c0c096"
                }
            }
        },
        {
            "resource": {
                "resourceType": "Observation",
                "id": "079d9716-b549-4158-9004-894493bf31f2",
                "meta": {
                    "versionId": "1",
                    "lastUpdated": "2023-09-15T14:37:24.546+00:00",
                    "profile": [
                        "https://hapi.fhir.tw/fhir/StructureDefinition/twcr-lf-pathologic-n-profile"
                    ]
                },
                "text": {
                    "status": "empty",
                    "div": "<div xmlns=\"http://www.w3.org/1999/xhtml\">目前為空值，可根據使用需求自行產生這筆資料的摘要資訊並填入此欄位</div>"
                },
                "status": "final",
                "code": {
                    "coding": [
                        {
                            "system": "http://loinc.org",
                            "code": "21899-0",
                            "display": "Primary tumor.pathology Cancer"
                        }
                    ]
                },
                "subject": {
                    "reference": "Patient/c5ff88a5-6c8f-4c3b-ba78-5a2e79c0c096"
                }
            }
        },
        {
            "resource": {
                "resourceType": "Observation",
                "id": "4de99bfc-0bee-499b-94c1-47d09eafc780",
                "meta": {
                    "versionId": "1",
                    "lastUpdated": "2023-09-15T14:37:24.615+00:00",
                    "profile": [
                        "https://hapi.fhir.tw/fhir/StructureDefinition/twcr-lf-pathologic-other-staging-profile"
                    ]
                },
                "text": {
                    "status": "empty",
                    "div": "<div xmlns=\"http://www.w3.org/1999/xhtml\">目前為空值，可根據使用需求自行產生這筆資料的摘要資訊並填入此欄位</div>"
                },
                "status": "final",
                "code": {
                    "coding": [
                        {
                            "system": "http://loinc.org",
                            "code": "21902-2",
                            "display": "Stage group.pathology Cancer"
                        }
                    ]
                },
                "subject": {
                    "reference": "Patient/c5ff88a5-6c8f-4c3b-ba78-5a2e79c0c096"
                },
                "valueCodeableConcept": {
                    "coding": [
                        {
                            "system": "https://mitw.dicom.org.tw/IG/TWCR/CodeSystem/pathologic-other-staging-codesystem.html",
                            "code": "0000",
                            "display": "無使用其他分期系統"
                        }
                    ]
                },
                "method": {
                    "coding": [
                        {
                            "system": "https://mitw.dicom.org.tw/IG/TWCR/CodeSystem/other-staging-system-codesystem",
                            "code": "code",
                            "display": "display"
                        }
                    ]
                }
            }
        },
        {
            "resource": {
                "resourceType": "Observation",
                "id": "0e8a8fc0-a2e1-4f26-8d1d-6f0425837252",
                "meta": {
                    "versionId": "1",
                    "lastUpdated": "2023-09-15T14:37:24.677+00:00",
                    "profile": [
                        "https://hapi.fhir.tw/fhir/StructureDefinition/twcr-lf-pathologic-stage-profile"
                    ]
                },
                "text": {
                    "status": "empty",
                    "div": "<div xmlns=\"http://www.w3.org/1999/xhtml\">目前為空值，可根據使用需求自行產生這筆資料的摘要資訊並填入此欄位</div>"
                },
                "status": "final",
                "code": {
                    "coding": [
                        {
                            "system": "http://loinc.org",
                            "code": "21902-2",
                            "display": "Stage group.pathology Cancer"
                        }
                    ]
                },
                "subject": {
                    "reference": "Patient/c5ff88a5-6c8f-4c3b-ba78-5a2e79c0c096"
                }
            }
        },
        {
            "resource": {
                "resourceType": "Observation",
                "id": "eb8b4da3-5331-4716-99ae-2e622a4cdb13",
                "meta": {
                    "versionId": "1",
                    "lastUpdated": "2023-09-15T14:37:24.757+00:00",
                    "profile": [
                        "https://hapi.fhir.tw/fhir/StructureDefinition/twcr-lf-pathologic-stage-prefix-suffix-description-profile"
                    ]
                },
                "text": {
                    "status": "empty",
                    "div": "<div xmlns=\"http://www.w3.org/1999/xhtml\">目前為空值，可根據使用需求自行產生這筆資料的摘要資訊並填入此欄位</div>"
                },
                "status": "final",
                "code": {
                    "coding": [
                        {
                            "system": "http://loinc.org",
                            "code": "21903-0",
                            "display": "Descriptor.pathology Cancer Narrative"
                        }
                    ]
                },
                "subject": {
                    "reference": "Patient/c5ff88a5-6c8f-4c3b-ba78-5a2e79c0c096"
                }
            }
        },
        {
            "resource": {
                "resourceType": "Observation",
                "id": "6b11daa4-aae5-45cf-ba63-45817473af24",
                "meta": {
                    "versionId": "1",
                    "lastUpdated": "2023-09-15T14:37:24.841+00:00",
                    "profile": [
                        "https://hapi.fhir.tw/fhir/StructureDefinition/twcr-lf-pathologic-t-profile"
                    ]
                },
                "text": {
                    "status": "empty",
                    "div": "<div xmlns=\"http://www.w3.org/1999/xhtml\">目前為空值，可根據使用需求自行產生這筆資料的摘要資訊並填入此欄位</div>"
                },
                "status": "final",
                "code": {
                    "coding": [
                        {
                            "system": "http://loinc.org",
                            "code": "21899-0",
                            "display": "Primary tumor.pathology Cancer"
                        }
                    ]
                },
                "subject": {
                    "reference": "Patient/c5ff88a5-6c8f-4c3b-ba78-5a2e79c0c096"
                }
            }
        },
        {
            "resource": {
                "resourceType": "Observation",
                "id": "37a81be4-f49a-43fd-ab55-6c17327af42a",
                "meta": {
                    "versionId": "1",
                    "lastUpdated": "2023-09-15T14:37:24.922+00:00",
                    "profile": [
                        "https://hapi.fhir.tw/fhir/StructureDefinition/twcr-lf-perineural-invasion-profile"
                    ]
                },
                "text": {
                    "status": "empty",
                    "div": "<div xmlns=\"http://www.w3.org/1999/xhtml\">目前為空值，可根據使用需求自行產生這筆資料的摘要資訊並填入此欄位</div>"
                },
                "status": "final",
                "code": {
                    "coding": [
                        {
                            "system": "http://loinc.org",
                            "code": "LP73089-2",
                            "display": "Perineural invasion"
                        }
                    ]
                },
                "subject": {
                    "reference": "Patient/c5ff88a5-6c8f-4c3b-ba78-5a2e79c0c096"
                },
                "valueCodeableConcept": {
                    "coding": [
                        {
                            "system": "https://mitw.dicom.org.tw/IG/TWCR/CodeSystem/perineural-invasion-codesystem",
                            "code": "8",
                            "display": "不適用：(1)GIST、NETs、High grade dysplasia (Severe dysplasia)、原位癌 (2)淋巴瘤及白血病 (3)Plasma cell myeloma (4)中樞神經系統之惡性腫瘤 (5)原發部位不詳 (6)原發部位未執行病理檢查或僅執行細胞學檢查"
                        }
                    ]
                }
            }
        },
        {
            "resource": {
                "resourceType": "Condition",
                "id": "16dbf4a2-b669-44c2-862f-fad0b35a04e4",
                "meta": {
                    "versionId": "1",
                    "lastUpdated": "2023-09-15T14:37:25.043+00:00",
                    "profile": [
                        "https://hapi.fhir.tw/fhir/StructureDefinition/twcr-lf-primary-cancer-profile"
                    ]
                },
                "text": {
                    "status": "empty",
                    "div": "<div xmlns=\"http://www.w3.org/1999/xhtml\">目前為空值，可根據使用需求自行產生這筆資料的摘要資訊並填入此欄位</div>"
                },
                "extension": [
                    {
                        "url": "https://hapi.fhir.tw/fhir/StructureDefinition/twcr-lf-behavior-code-extension",
                        "extension": [
                            {
                                "url": "behaviorCode",
                                "valueCodeableConcept": {
                                    "coding": [
                                        {
                                            "system": "https://mitw.dicom.org.tw/IG/TWCR/CodeSystem/behavior-code-codesystem",
                                            "code": "3",
                                            "display": "invasive"
                                        }
                                    ]
                                }
                            }
                        ]
                    }
                ],
                "bodySite": [
                    {
                        "coding": [
                            {
                                "system": "https://mitw.dicom.org.tw/IG/TWCR/CodeSystem/laterality-codesystem",
                                "code": "1",
                                "display": "原發起源位在右側"
                            }
                        ]
                    }
                ],
                "subject": {
                    "reference": "Patient/c5ff88a5-6c8f-4c3b-ba78-5a2e79c0c096"
                }
            }
        },
        {
            "resource": {
                "resourceType": "Procedure",
                "id": "7c86ba63-2984-45b1-8169-fa53a5228619",
                "meta": {
                    "versionId": "1",
                    "lastUpdated": "2023-09-15T14:37:25.105+00:00",
                    "profile": [
                        "https://hapi.fhir.tw/fhir/StructureDefinition/twcr-lf-reason-for-no-surgery-of-primary-site-profile"
                    ]
                },
                "text": {
                    "status": "empty",
                    "div": "<div xmlns=\"http://www.w3.org/1999/xhtml\">目前為空值，可根據使用需求自行產生這筆資料的摘要資訊並填入此欄位</div>"
                },
                "status": "completed",
                "subject": {
                    "reference": "Patient/c5ff88a5-6c8f-4c3b-ba78-5a2e79c0c096"
                }
            }
        },
        {
            "resource": {
                "resourceType": "Observation",
                "id": "4b33a05d-b58f-4911-a2fe-8c646bc1a9cd",
                "meta": {
                    "versionId": "1",
                    "lastUpdated": "2023-09-15T14:37:25.186+00:00",
                    "profile": [
                        "https://hapi.fhir.tw/fhir/StructureDefinition/twcr-lf-regional-lymph-nodes-examined-profile"
                    ]
                },
                "text": {
                    "status": "empty",
                    "div": "<div xmlns=\"http://www.w3.org/1999/xhtml\">目前為空值，可根據使用需求自行產生這筆資料的摘要資訊並填入此欄位</div>"
                },
                "status": "final",
                "code": {
                    "coding": [
                        {
                            "system": "http://loinc.org",
                            "code": "21894-1",
                            "display": "Regional lymph nodes examined [#] Specimen"
                        }
                    ]
                },
                "subject": {
                    "reference": "Patient/c5ff88a5-6c8f-4c3b-ba78-5a2e79c0c096"
                },
                "valueCodeableConcept": {
                    "coding": [
                        {
                            "system": "https://mitw.dicom.org.tw/IG/TWCR/CodeSystem/regional-lymph-node-examined-codesystem",
                            "code": "00",
                            "display": "未檢查區域淋巴結"
                        }
                    ]
                }
            }
        },
        {
            "resource": {
                "resourceType": "Observation",
                "id": "2901ee84-3eef-4db6-9dcd-439ca9efee10",
                "meta": {
                    "versionId": "1",
                    "lastUpdated": "2023-09-15T14:37:25.264+00:00",
                    "profile": [
                        "https://hapi.fhir.tw/fhir/StructureDefinition/twcr-lf-regional-lymph-nodes-positive-profile"
                    ]
                },
                "text": {
                    "status": "empty",
                    "div": "<div xmlns=\"http://www.w3.org/1999/xhtml\">目前為空值，可根據使用需求自行產生這筆資料的摘要資訊並填入此欄位</div>"
                },
                "status": "final",
                "code": {
                    "coding": [
                        {
                            "system": "http://loinc.org",
                            "code": "21893-3",
                            "display": "Regional lymph nodes positive [#] Specimen"
                        }
                    ]
                },
                "subject": {
                    "reference": "Patient/c5ff88a5-6c8f-4c3b-ba78-5a2e79c0c096"
                },
                "valueCodeableConcept": {
                    "coding": [
                        {
                            "system": "https://mitw.dicom.org.tw/IG/TWCR/CodeSystem/regional-lymph-node-positive-codesystem",
                            "code": "98",
                            "display": "未檢查區域淋巴結"
                        }
                    ]
                }
            }
        },
        {
            "resource": {
                "resourceType": "Procedure",
                "id": "09d48fed-5bb7-4521-b141-6d78deec6bed",
                "meta": {
                    "versionId": "1",
                    "lastUpdated": "2023-09-15T14:37:25.327+00:00",
                    "profile": [
                        "https://hapi.fhir.tw/fhir/StructureDefinition/twcr-lf-rt-profile"
                    ]
                },
                "text": {
                    "status": "empty",
                    "div": "<div xmlns=\"http://www.w3.org/1999/xhtml\">目前為空值，可根據使用需求自行產生這筆資料的摘要資訊並填入此欄位</div>"
                },
                "extension": [
                    {
                        "url": "https://hapi.fhir.tw/fhir/StructureDefinition/rt-status-extension",
                        "valueCodeableConcept": {
                            "coding": [
                                {
                                    "system": "https://mitw.dicom.org.tw/IG/TWCR/CodeSystem/procedure-code-codesystem",
                                    "code": "01",
                                    "display": "放射治療非既定之首次療程計畫中的一部分"
                                }
                            ]
                        }
                    }
                ],
                "status": "completed",
                "category": {
                    "coding": [
                        {
                            "system": "https://mitw.dicom.org.tw/IG/TWCR/CodeSystem/procedure-code-codesystem",
                            "code": "RT",
                            "display": "申報醫院放射治療"
                        }
                    ]
                },
                "subject": {
                    "reference": "Patient/c5ff88a5-6c8f-4c3b-ba78-5a2e79c0c096"
                }
            }
        },
        {
            "resource": {
                "resourceType": "Procedure",
                "id": "896fc8cb-afdc-4821-a0be-d83d49023542",
                "meta": {
                    "versionId": "1",
                    "lastUpdated": "2023-09-15T14:37:25.403+00:00",
                    "profile": [
                        "https://hapi.fhir.tw/fhir/StructureDefinition/twcr-lf-scope-of-regional-lymph-node-surgery-profile"
                    ]
                },
                "text": {
                    "status": "empty",
                    "div": "<div xmlns=\"http://www.w3.org/1999/xhtml\">目前為空值，可根據使用需求自行產生這筆資料的摘要資訊並填入此欄位</div>"
                },
                "status": "completed",
                "subject": {
                    "reference": "Patient/c5ff88a5-6c8f-4c3b-ba78-5a2e79c0c096"
                }
            }
        },
        {
            "resource": {
                "resourceType": "Procedure",
                "id": "7a9cd423-8968-40c1-b881-560ce15b3869",
                "meta": {
                    "versionId": "1",
                    "lastUpdated": "2023-09-15T14:37:25.466+00:00",
                    "profile": [
                        "https://hapi.fhir.tw/fhir/StructureDefinition/twcr-lf-scope-of-regional-lymph-node-surgery-at-other-facility-profile"
                    ]
                },
                "text": {
                    "status": "empty",
                    "div": "<div xmlns=\"http://www.w3.org/1999/xhtml\">目前為空值，可根據使用需求自行產生這筆資料的摘要資訊並填入此欄位</div>"
                },
                "status": "completed",
                "subject": {
                    "reference": "Patient/c5ff88a5-6c8f-4c3b-ba78-5a2e79c0c096"
                }
            }
        },
        {
            "resource": {
                "resourceType": "Procedure",
                "id": "bda8dee6-fbda-4d34-8509-f14115bb0a63",
                "meta": {
                    "versionId": "1",
                    "lastUpdated": "2023-09-15T14:37:25.543+00:00",
                    "profile": [
                        "https://hapi.fhir.tw/fhir/StructureDefinition/twcr-lf-sequence-of-radiotherapy-and-surgery-profile"
                    ]
                },
                "text": {
                    "status": "empty",
                    "div": "<div xmlns=\"http://www.w3.org/1999/xhtml\">目前為空值，可根據使用需求自行產生這筆資料的摘要資訊並填入此欄位</div>"
                },
                "status": "completed",
                "subject": {
                    "reference": "Patient/c5ff88a5-6c8f-4c3b-ba78-5a2e79c0c096"
                }
            }
        },
        {
            "resource": {
                "resourceType": "Procedure",
                "id": "1826aa67-16b7-472f-9a3e-8938104fd751",
                "meta": {
                    "versionId": "1",
                    "lastUpdated": "2023-09-15T14:37:25.603+00:00",
                    "profile": [
                        "https://hapi.fhir.tw/fhir/StructureDefinition/twcr-lf-sequence-of-radiotherapy-and-surgery-profile"
                    ]
                },
                "text": {
                    "status": "empty",
                    "div": "<div xmlns=\"http://www.w3.org/1999/xhtml\">目前為空值，可根據使用需求自行產生這筆資料的摘要資訊並填入此欄位</div>"
                },
                "status": "completed",
                "subject": {
                    "reference": "Patient/c5ff88a5-6c8f-4c3b-ba78-5a2e79c0c096"
                }
            }
        },
        {
            "resource": {
                "resourceType": "Observation",
                "id": "7547051f-cc71-43b4-be97-17ab520ba8c6",
                "meta": {
                    "versionId": "1",
                    "lastUpdated": "2023-09-15T14:37:25.673+00:00",
                    "profile": [
                        "https://hapi.fhir.tw/fhir/StructureDefinition/twcr-lf-smoking-behavior-profile"
                    ]
                },
                "text": {
                    "status": "empty",
                    "div": "<div xmlns=\"http://www.w3.org/1999/xhtml\">目前為空值，可根據使用需求自行產生這筆資料的摘要資訊並填入此欄位</div>"
                },
                "status": "final",
                "code": {
                    "coding": [
                        {
                            "system": "https://mitw.dicom.org.tw/IG/TWCR/CodeSystem/behavior-codesystem",
                            "code": "Smoking",
                            "display": "吸菸行為"
                        }
                    ]
                },
                "subject": {
                    "reference": "Patient/c5ff88a5-6c8f-4c3b-ba78-5a2e79c0c096"
                },
                "component": [
                    {
                        "code": {
                            "coding": [
                                {
                                    "system": "https://mitw.dicom.org.tw/IG/TWCR/CodeSystem/smoking-behavior-codesystem",
                                    "code": "quit",
                                    "display": "戒菸年"
                                }
                            ]
                        },
                        "valueCodeableConcept": {
                            "coding": [
                                {
                                    "system": "https://mitw.dicom.org.tw/IG/TWCR/CodeSystem/smoking-quit-codesystem",
                                    "code": "99",
                                    "display": "病歷未記載或戒菸狀態完全不詳者"
                                }
                            ]
                        }
                    }
                ]
            }
        },
        {
            "resource": {
                "resourceType": "Observation",
                "id": "05675f84-1ae6-492f-832d-ad891e8c8d30",
                "meta": {
                    "versionId": "1",
                    "lastUpdated": "2023-09-15T14:37:25.748+00:00",
                    "profile": [
                        "https://hapi.fhir.tw/fhir/StructureDefinition/twcr-lf-ssf-1-profile"
                    ]
                },
                "text": {
                    "status": "empty",
                    "div": "<div xmlns=\"http://www.w3.org/1999/xhtml\">目前為空值，可根據使用需求自行產生這筆資料的摘要資訊並填入此欄位</div>"
                },
                "status": "final",
                "code": {
                    "coding": [
                        {
                            "system": "http://loinc.org",
                            "code": "42086-9",
                            "display": "Collaborative staging site-Specific factor 1 Cancer"
                        }
                    ]
                },
                "subject": {
                    "reference": "Patient/c5ff88a5-6c8f-4c3b-ba78-5a2e79c0c096"
                }
            }
        },
        {
            "resource": {
                "resourceType": "Observation",
                "id": "2b8cf845-b9e9-4e02-8e4c-d10b0aabf4f5",
                "meta": {
                    "versionId": "1",
                    "lastUpdated": "2023-09-15T14:37:25.803+00:00",
                    "profile": [
                        "https://hapi.fhir.tw/fhir/StructureDefinition/twcr-lf-ssf-10-profile"
                    ]
                },
                "text": {
                    "status": "empty",
                    "div": "<div xmlns=\"http://www.w3.org/1999/xhtml\">目前為空值，可根據使用需求自行產生這筆資料的摘要資訊並填入此欄位</div>"
                },
                "status": "final",
                "code": {
                    "coding": [
                        {
                            "system": "http://loinc.org",
                            "code": "59492-9",
                            "display": "Collaborative staging site-Specific factor 10 Cancer"
                        }
                    ]
                },
                "subject": {
                    "reference": "Patient/c5ff88a5-6c8f-4c3b-ba78-5a2e79c0c096"
                }
            }
        },
        {
            "resource": {
                "resourceType": "Observation",
                "id": "7f77bae0-d864-4af2-a6b8-b408580ebf9f",
                "meta": {
                    "versionId": "1",
                    "lastUpdated": "2023-09-15T14:37:25.876+00:00",
                    "profile": [
                        "https://hapi.fhir.tw/fhir/StructureDefinition/twcr-lf-ssf-2-profile"
                    ]
                },
                "text": {
                    "status": "empty",
                    "div": "<div xmlns=\"http://www.w3.org/1999/xhtml\">目前為空值，可根據使用需求自行產生這筆資料的摘要資訊並填入此欄位</div>"
                },
                "status": "final",
                "code": {
                    "coding": [
                        {
                            "system": "http://loinc.org",
                            "code": "42087-7",
                            "display": "Collaborative staging site-Specific factor 2 Cancer"
                        }
                    ]
                },
                "subject": {
                    "reference": "Patient/c5ff88a5-6c8f-4c3b-ba78-5a2e79c0c096"
                }
            }
        },
        {
            "resource": {
                "resourceType": "Observation",
                "id": "914843ce-35d6-4736-839b-0c860e7aa8ba",
                "meta": {
                    "versionId": "1",
                    "lastUpdated": "2023-09-15T14:37:25.953+00:00",
                    "profile": [
                        "https://hapi.fhir.tw/fhir/StructureDefinition/twcr-lf-ssf-3-profile"
                    ]
                },
                "text": {
                    "status": "empty",
                    "div": "<div xmlns=\"http://www.w3.org/1999/xhtml\">目前為空值，可根據使用需求自行產生這筆資料的摘要資訊並填入此欄位</div>"
                },
                "status": "final",
                "code": {
                    "coding": [
                        {
                            "system": "http://loinc.org",
                            "code": "42088-5",
                            "display": "Collaborative staging site-Specific factor 3 Cancer"
                        }
                    ]
                },
                "subject": {
                    "reference": "Patient/c5ff88a5-6c8f-4c3b-ba78-5a2e79c0c096"
                }
            }
        },
        {
            "resource": {
                "resourceType": "Observation",
                "id": "0424dcc5-543a-4807-9219-b6069e1594c2",
                "meta": {
                    "versionId": "1",
                    "lastUpdated": "2023-09-15T14:37:26.033+00:00",
                    "profile": [
                        "https://hapi.fhir.tw/fhir/StructureDefinition/twcr-lf-ssf-4-profile"
                    ]
                },
                "text": {
                    "status": "empty",
                    "div": "<div xmlns=\"http://www.w3.org/1999/xhtml\">目前為空值，可根據使用需求自行產生這筆資料的摘要資訊並填入此欄位</div>"
                },
                "status": "final",
                "code": {
                    "coding": [
                        {
                            "system": "http://loinc.org",
                            "code": "42089-3",
                            "display": "Collaborative staging site-Specific factor 4 Cancer"
                        }
                    ]
                },
                "subject": {
                    "reference": "Patient/c5ff88a5-6c8f-4c3b-ba78-5a2e79c0c096"
                }
            }
        },
        {
            "resource": {
                "resourceType": "Observation",
                "id": "e344b46a-0cdb-4ddf-80e9-8f98e21b814b",
                "meta": {
                    "versionId": "1",
                    "lastUpdated": "2023-09-15T14:37:26.123+00:00",
                    "profile": [
                        "https://hapi.fhir.tw/fhir/StructureDefinition/twcr-lf-ssf-5-profile"
                    ]
                },
                "text": {
                    "status": "empty",
                    "div": "<div xmlns=\"http://www.w3.org/1999/xhtml\">目前為空值，可根據使用需求自行產生這筆資料的摘要資訊並填入此欄位</div>"
                },
                "status": "final",
                "code": {
                    "coding": [
                        {
                            "system": "http://loinc.org",
                            "code": "42090-1",
                            "display": "Collaborative staging site-Specific factor 5 Cancer"
                        }
                    ]
                },
                "subject": {
                    "reference": "Patient/c5ff88a5-6c8f-4c3b-ba78-5a2e79c0c096"
                }
            }
        },
        {
            "resource": {
                "resourceType": "Observation",
                "id": "ae077367-7188-4b40-b21d-ead350fee9cd",
                "meta": {
                    "versionId": "1",
                    "lastUpdated": "2023-09-15T14:37:26.209+00:00",
                    "profile": [
                        "https://hapi.fhir.tw/fhir/StructureDefinition/twcr-lf-ssf-6-profile"
                    ]
                },
                "text": {
                    "status": "empty",
                    "div": "<div xmlns=\"http://www.w3.org/1999/xhtml\">目前為空值，可根據使用需求自行產生這筆資料的摘要資訊並填入此欄位</div>"
                },
                "status": "final",
                "code": {
                    "coding": [
                        {
                            "system": "http://loinc.org",
                            "code": "42091-9",
                            "display": "Collaborative staging site-Specific factor 6 Cancer"
                        }
                    ]
                },
                "subject": {
                    "reference": "Patient/c5ff88a5-6c8f-4c3b-ba78-5a2e79c0c096"
                }
            }
        },
        {
            "resource": {
                "resourceType": "Observation",
                "id": "cd27d884-4dca-4af0-b69c-f2c4e3bf2a47",
                "meta": {
                    "versionId": "1",
                    "lastUpdated": "2023-09-15T14:37:26.272+00:00",
                    "profile": [
                        "https://hapi.fhir.tw/fhir/StructureDefinition/twcr-lf-ssf-7-profile"
                    ]
                },
                "text": {
                    "status": "empty",
                    "div": "<div xmlns=\"http://www.w3.org/1999/xhtml\">目前為空值，可根據使用需求自行產生這筆資料的摘要資訊並填入此欄位</div>"
                },
                "status": "final",
                "code": {
                    "coding": [
                        {
                            "system": "http://loinc.org",
                            "code": "59489-5",
                            "display": "Collaborative staging site-Specific factor 7 Cancer"
                        }
                    ]
                },
                "subject": {
                    "reference": "Patient/c5ff88a5-6c8f-4c3b-ba78-5a2e79c0c096"
                }
            }
        },
        {
            "resource": {
                "resourceType": "Observation",
                "id": "9c7ecb35-7086-4ad9-b293-5be6799eab8f",
                "meta": {
                    "versionId": "1",
                    "lastUpdated": "2023-09-15T14:37:26.333+00:00",
                    "profile": [
                        "https://hapi.fhir.tw/fhir/StructureDefinition/twcr-lf-ssf-8-profile"
                    ]
                },
                "text": {
                    "status": "empty",
                    "div": "<div xmlns=\"http://www.w3.org/1999/xhtml\">目前為空值，可根據使用需求自行產生這筆資料的摘要資訊並填入此欄位</div>"
                },
                "status": "final",
                "code": {
                    "coding": [
                        {
                            "system": "http://loinc.org",
                            "code": "59490-3",
                            "display": "Collaborative staging site-Specific factor 8 Cancer"
                        }
                    ]
                },
                "subject": {
                    "reference": "Patient/c5ff88a5-6c8f-4c3b-ba78-5a2e79c0c096"
                }
            }
        },
        {
            "resource": {
                "resourceType": "Observation",
                "id": "b2f3e4f6-863b-48c9-a2c5-8be9ea851a7b",
                "meta": {
                    "versionId": "1",
                    "lastUpdated": "2023-09-15T14:37:26.412+00:00",
                    "profile": [
                        "https://hapi.fhir.tw/fhir/StructureDefinition/twcr-lf-ssf-9-profile"
                    ]
                },
                "text": {
                    "status": "empty",
                    "div": "<div xmlns=\"http://www.w3.org/1999/xhtml\">目前為空值，可根據使用需求自行產生這筆資料的摘要資訊並填入此欄位</div>"
                },
                "status": "final",
                "code": {
                    "coding": [
                        {
                            "system": "http://loinc.org",
                            "code": "59491-1",
                            "display": "Collaborative staging site-Specific factor 9 Cancer"
                        }
                    ]
                },
                "subject": {
                    "reference": "Patient/c5ff88a5-6c8f-4c3b-ba78-5a2e79c0c096"
                }
            }
        },
        {
            "resource": {
                "resourceType": "Procedure",
                "id": "8555fb18-0e5a-4ca3-84d1-094ae22e5db8",
                "meta": {
                    "versionId": "1",
                    "lastUpdated": "2023-09-15T14:37:26.492+00:00",
                    "profile": [
                        "https://hapi.fhir.tw/fhir/StructureDefinition/twcr-lf-surgical-diagnostic-and-staging-procedure-profile"
                    ]
                },
                "text": {
                    "status": "empty",
                    "div": "<div xmlns=\"http://www.w3.org/1999/xhtml\">目前為空值，可根據使用需求自行產生這筆資料的摘要資訊並填入此欄位</div>"
                },
                "status": "completed",
                "category": {
                    "coding": [
                        {
                            "system": "https://mitw.dicom.org.tw/IG/TWCR/CodeSystem/procedure-code-codesystem",
                            "code": "SurgicalDiagnosticAndStagingProcedure",
                            "display": "申報醫院診斷性及分期性手術處置"
                        }
                    ]
                },
                "subject": {
                    "reference": "Patient/c5ff88a5-6c8f-4c3b-ba78-5a2e79c0c096"
                },
                "performedDateTime": "2002-11-11"
            }
        },
        {
            "resource": {
                "resourceType": "Procedure",
                "id": "b3cc4483-6475-4175-8108-1712052cb29d",
                "meta": {
                    "versionId": "1",
                    "lastUpdated": "2023-09-15T14:37:26.575+00:00",
                    "profile": [
                        "https://hapi.fhir.tw/fhir/StructureDefinition/twcr-lf-surgical-diagnostic-and-staging-at-other-facility-profile"
                    ]
                },
                "text": {
                    "status": "empty",
                    "div": "<div xmlns=\"http://www.w3.org/1999/xhtml\">目前為空值，可根據使用需求自行產生這筆資料的摘要資訊並填入此欄位</div>"
                },
                "status": "completed",
                "category": {
                    "coding": [
                        {
                            "system": "https://mitw.dicom.org.tw/IG/TWCR/CodeSystem/procedure-code-codesystem",
                            "code": "OtherFacilitySurgicalDiagnosticAndStagingProcedure",
                            "display": "外院診斷性及分期性手術處置"
                        }
                    ]
                },
                "subject": {
                    "reference": "Patient/c5ff88a5-6c8f-4c3b-ba78-5a2e79c0c096"
                }
            }
        },
        {
            "resource": {
                "resourceType": "Observation",
                "id": "76dffe52-8cc6-48a2-9abd-5a5f50d8ac4e",
                "meta": {
                    "versionId": "1",
                    "lastUpdated": "2023-09-15T14:37:26.649+00:00",
                    "profile": [
                        "https://hapi.fhir.tw/fhir/StructureDefinition/twcr-lf-surgical-margins-distance-of-the-primary-site-profile"
                    ]
                },
                "text": {
                    "status": "empty",
                    "div": "<div xmlns=\"http://www.w3.org/1999/xhtml\">目前為空值，可根據使用需求自行產生這筆資料的摘要資訊並填入此欄位</div>"
                },
                "status": "final",
                "code": {
                    "coding": [
                        {
                            "system": "http://loinc.org",
                            "code": "81184-4",
                            "display": "Distance of tumor from circumferential resection margin [Length] by Microscopy"
                        }
                    ]
                },
                "subject": {
                    "reference": "Patient/c5ff88a5-6c8f-4c3b-ba78-5a2e79c0c096"
                }
            }
        },
        {
            "resource": {
                "resourceType": "Observation",
                "id": "a43d7bc9-5585-4dbc-be62-8522c885e9e0",
                "meta": {
                    "versionId": "1",
                    "lastUpdated": "2023-09-15T14:37:26.750+00:00",
                    "profile": [
                        "https://hapi.fhir.tw/fhir/StructureDefinition/twcr-lf-surgical-margins-of-the-primary-site-profile"
                    ]
                },
                "text": {
                    "status": "empty",
                    "div": "<div xmlns=\"http://www.w3.org/1999/xhtml\">目前為空值，可根據使用需求自行產生這筆資料的摘要資訊並填入此欄位</div>"
                },
                "status": "final",
                "code": {
                    "coding": [
                        {
                            "system": "http://loinc.org",
                            "code": "21939-4",
                            "display": "Surgical margins cancer"
                        }
                    ]
                },
                "subject": {
                    "reference": "Patient/c5ff88a5-6c8f-4c3b-ba78-5a2e79c0c096"
                }
            }
        },
        {
            "resource": {
                "resourceType": "Procedure",
                "id": "b436ff99-ee48-4c91-8c0b-86e4de9a1905",
                "meta": {
                    "versionId": "1",
                    "lastUpdated": "2023-09-15T14:37:26.831+00:00",
                    "profile": [
                        "https://hapi.fhir.tw/fhir/StructureDefinition/twcr-lf-surgical-procedure-of-primary-site-profile"
                    ]
                },
                "text": {
                    "status": "empty",
                    "div": "<div xmlns=\"http://www.w3.org/1999/xhtml\">目前為空值，可根據使用需求自行產生這筆資料的摘要資訊並填入此欄位</div>"
                },
                "code": {
                    "text": "00"
                },
                "subject": {
                    "reference": "Patient/c5ff88a5-6c8f-4c3b-ba78-5a2e79c0c096"
                },
                "performedDateTime": "2002-11-11"
            }
        },
        {
            "resource": {
                "resourceType": "Procedure",
                "id": "95e5c4bf-f0e9-4266-8a0f-167f7c7a22ea",
                "meta": {
                    "versionId": "1",
                    "lastUpdated": "2023-09-15T14:37:26.913+00:00",
                    "profile": [
                        "https://hapi.fhir.tw/fhir/StructureDefinition/twcr-lf-surgical-procedure-of-primary-site-at-other-facility-profile"
                    ]
                },
                "text": {
                    "status": "empty",
                    "div": "<div xmlns=\"http://www.w3.org/1999/xhtml\">目前為空值，可根據使用需求自行產生這筆資料的摘要資訊並填入此欄位</div>"
                },
                "code": {
                    "text": "00"
                },
                "subject": {
                    "reference": "Patient/c5ff88a5-6c8f-4c3b-ba78-5a2e79c0c096"
                },
                "performedDateTime": "2002-11-11"
            }
        },
        {
            "resource": {
                "resourceType": "Procedure",
                "id": "26122caf-5acf-487f-ac41-1062ab612a57",
                "meta": {
                    "versionId": "1",
                    "lastUpdated": "2023-09-15T14:37:26.970+00:00",
                    "profile": [
                        "https://hapi.fhir.tw/fhir/StructureDefinition/twcr-lf-surgical-procedure-other-site-profile"
                    ]
                },
                "text": {
                    "status": "empty",
                    "div": "<div xmlns=\"http://www.w3.org/1999/xhtml\">目前為空值，可根據使用需求自行產生這筆資料的摘要資訊並填入此欄位</div>"
                },
                "status": "completed",
                "subject": {
                    "reference": "Patient/c5ff88a5-6c8f-4c3b-ba78-5a2e79c0c096"
                }
            }
        },
        {
            "resource": {
                "resourceType": "Procedure",
                "id": "b9616f8a-651e-4f4c-bf16-9724d3e5b6f4",
                "meta": {
                    "versionId": "1",
                    "lastUpdated": "2023-09-15T14:37:27.042+00:00",
                    "profile": [
                        "https://hapi.fhir.tw/fhir/StructureDefinition/twcr-lf-surgical-procedure-other-site-at-other-facility-profile"
                    ]
                },
                "text": {
                    "status": "empty",
                    "div": "<div xmlns=\"http://www.w3.org/1999/xhtml\">目前為空值，可根據使用需求自行產生這筆資料的摘要資訊並填入此欄位</div>"
                },
                "status": "completed",
                "subject": {
                    "reference": "Patient/c5ff88a5-6c8f-4c3b-ba78-5a2e79c0c096"
                }
            }
        },
        {
            "resource": {
                "resourceType": "Procedure",
                "id": "e0152c01-e22d-439b-adb8-87263ee49164",
                "meta": {
                    "versionId": "1",
                    "lastUpdated": "2023-09-15T14:37:27.146+00:00",
                    "profile": [
                        "https://hapi.fhir.tw/fhir/StructureDefinition/twcr-lf-systemic-therapy-profile"
                    ]
                },
                "text": {
                    "status": "empty",
                    "div": "<div xmlns=\"http://www.w3.org/1999/xhtml\">目前為空值，可根據使用需求自行產生這筆資料的摘要資訊並填入此欄位</div>"
                },
                "status": "completed",
                "subject": {
                    "reference": "Patient/c5ff88a5-6c8f-4c3b-ba78-5a2e79c0c096"
                },
                "performedDateTime": "2002-11-11"
            }
        },
        {
            "resource": {
                "resourceType": "Procedure",
                "id": "3217a2b4-3537-40bb-ad72-42c182334534",
                "meta": {
                    "versionId": "1",
                    "lastUpdated": "2023-09-15T14:37:27.229+00:00",
                    "profile": [
                        "https://hapi.fhir.tw/fhir/StructureDefinition/twcr-lf-targeted-therapy-profile"
                    ]
                },
                "text": {
                    "status": "empty",
                    "div": "<div xmlns=\"http://www.w3.org/1999/xhtml\">目前為空值，可根據使用需求自行產生這筆資料的摘要資訊並填入此欄位</div>"
                },
                "status": "completed",
                "category": {
                    "coding": [
                        {
                            "system": "https://mitw.dicom.org.tw/IG/TWCR/CodeSystem/procedure-code-codesystem",
                            "code": "TargetedTherapy",
                            "display": "TargetedTherapy"
                        }
                    ]
                },
                "subject": {
                    "reference": "Patient/c5ff88a5-6c8f-4c3b-ba78-5a2e79c0c096"
                },
                "performedPeriod": {
                    "start": "2002-11-11"
                }
            }
        },
        {
            "resource": {
                "resourceType": "Procedure",
                "id": "18484ec5-8d78-4508-89f0-375d7067b8ab",
                "meta": {
                    "versionId": "1",
                    "lastUpdated": "2023-09-15T14:37:27.289+00:00",
                    "profile": [
                        "https://hapi.fhir.tw/fhir/StructureDefinition/twcr-lf-targeted-therapy-at-other-facility-profile"
                    ]
                },
                "text": {
                    "status": "empty",
                    "div": "<div xmlns=\"http://www.w3.org/1999/xhtml\">目前為空值，可根據使用需求自行產生這筆資料的摘要資訊並填入此欄位</div>"
                },
                "status": "completed",
                "category": {
                    "coding": [
                        {
                            "system": "https://mitw.dicom.org.tw/IG/TWCR/CodeSystem/procedure-code-codesystem",
                            "code": "OtherFacilityTargetedTherapy",
                            "display": "外院標靶治療"
                        }
                    ]
                },
                "subject": {
                    "reference": "Patient/c5ff88a5-6c8f-4c3b-ba78-5a2e79c0c096"
                }
            }
        },
        {
            "resource": {
                "resourceType": "Observation",
                "id": "8ad64c0d-2720-4c6e-bd6c-96cc4e2d962f",
                "meta": {
                    "versionId": "1",
                    "lastUpdated": "2023-09-15T14:37:27.370+00:00",
                    "profile": [
                        "https://hapi.fhir.tw/fhir/StructureDefinition/twcr-lf-tumor-size-profile"
                    ]
                },
                "text": {
                    "status": "empty",
                    "div": "<div xmlns=\"http://www.w3.org/1999/xhtml\">目前為空值，可根據使用需求自行產生這筆資料的摘要資訊並填入此欄位</div>"
                },
                "status": "final",
                "code": {
                    "coding": [
                        {
                            "system": "http://loinc.org",
                            "code": "33728-7",
                            "display": "Size.maximum dimension in Tumor"
                        }
                    ]
                },
                "subject": {
                    "reference": "Patient/c5ff88a5-6c8f-4c3b-ba78-5a2e79c0c096"
                },
                "valueQuantity": {
                    "value": 59,
                    "unit": "millimeter",
                    "system": "http://unitsofmeasure.org",
                    "code": "mm"
                }
            }
        },
        {
            "resource": {
                "resourceType": "Observation",
                "id": "ee1cff3d-bc46-4e4a-9aa4-5cfee3e82be7",
                "meta": {
                    "versionId": "1",
                    "lastUpdated": "2023-09-15T14:37:27.465+00:00",
                    "profile": [
                        "https://hapi.fhir.tw/fhir/StructureDefinition/twcr-lf-weight-profile"
                    ]
                },
                "text": {
                    "status": "empty",
                    "div": "<div xmlns=\"http://www.w3.org/1999/xhtml\">目前為空值，可根據使用需求自行產生這筆資料的摘要資訊並填入此欄位</div>"
                },
                "status": "final",
                "code": {
                    "coding": [
                        {
                            "system": "http://loinc.org",
                            "code": "29463-7",
                            "display": "Body Weight"
                        }
                    ]
                },
                "subject": {
                    "reference": "Patient/c5ff88a5-6c8f-4c3b-ba78-5a2e79c0c096"
                },
                "valueCodeableConcept": {
                    "coding": [
                        {
                            "system": "https://mitw.dicom.org.tw/IG/TWCR/CodeSystem/weight-codesystem",
                            "code": "999",
                            "display": "病歷未記載或不詳"
                        }
                    ]
                }
            }
        }
    ]
}